Folder: DACS/ASM109_2021_data/MTS/90 (part 4)

File: MTS_90_9.csv
,Time [s],Load [N],Displacement [mm]
0,0.0078125,-360.272,0.00173807
36,0.183594,-321.658,0.00554681
72,0.359375,-305.297,0.0118268
108,0.535156,-273.561,0.0159645
144,0.7109375,-277.988,0.0221765
180,0.886719,-239.865,0.0265324
216,1.0625,-210.1,0.0342393
252,1.23828,-179.978,0.0399971
288,1.41406,-174.987,0.0456154
324,1.58984,-144.441,0.0499821
360,1.765625,-114.801,0.0575888
396,1.94141,-78.4316,0.0631571
432,2.11719,-73.316,0.0686824
468,2.29297,-39.8405,0.0741327
504,2.46875,-32.2149,0.0799048
540,2.64453,2.13419,0.0869787
576,2.82031,18.2161,0.0936735
612,2.99609,33.1083,0.0983942
648,3.171875,71.0376,0.104334
684,3.34766,93.6452,0.10987
720,3.52344,107.589,0.115718
756,3.69922,147.074,0.120975
792,3.875,158.534,0.129461
828,4.05078,183.682,0.132744
864,4.22656,205.986,0.139321
900,4.40234,227.594,0.144521
936,4.578125,259.249,0.150701
972,4.75391,273.474,0.156301
1008,4.92969,304.955,0.162123
1044,5.10547,327.661,0.168346
1080,5.28125,334.034,0.174472
1116,5.45703,376.113,0.180684
1152,5.63281,392.759,0.187547
1188,5.80859,401.69,0.192379
1224,5.984375,425.058,0.199825
1260,6.16016,458.686,0.205493
1296,6.33594,490.295,0.210693
1332,6.51172,496.489,0.214384
1368,6.6875,524.984,0.22095
1404,6.86328,554.718,0.227945
1440,7.03906,575.294,0.231003
1476,7.21484,595.938,0.239081
1512,7.390625,612.744,0.244678
1548,7.56641,636.037,0.250776
1584,7.74219,658.705,0.257177
1620,7.91797,688.708,0.262864
1656,8.09375,704.712,0.268571
1692,8.26953,727.274,0.2755022
1728,8.44531,750.491,0.281893
1764,8.62109,768.377,0.287461
1800,8.796875,791.297,0.292622
1836,8.97266,805.903,0.298684
1872,9.14844,842.32,0.302829
1908,9.32422,861.108,0.310171
1944,9.5,885.296,0.3133285
1980,9.67578,904.129,0.320356
2016,9.85156,923.76,0.32704
2052,10.0273,952.757,0.33278
2088,10.2031,980.915,0.338287
2124,10.3789,982.68,0.344192
2160,10.5547,1011.35,0.350736
2196,10.7305,1022.9,0.355697
2232,10.90625,1058.96,0.361036
2268,11.082,1081.41,0.369276
2304,11.2578,1108,0.374544
2340,11.4336,1121.54,0.380402
2376,11.6094,1157.5,0.387615
2412,11.7852,1166.17,0.392121
2448,11.9609,1201.24,0.397038
2484,12.1367,1203.94,0.402946
2520,12.3125,1230.63,0.408211
2556,12.4883,1252.78,0.415363
2592,12.6641,1277.77,0.419805
2628,12.8398,1298.91,0.426368
2664,13.0156,1315.28,0.433602
2700,13.1914,1331.55,0.438827
2736,13.3672,1369.96,0.44481
2772,13.543,1378.85,0.448798
2808,13.71875,1404.34,0.456008
2844,13.8945,1420.01,0.461379
2880,14.0703,1445.91,0.467877
2916,14.2461,1463.99,0.473807
2952,14.4219,1479.85,0.47857
2988,14.5977,1509.19,0.484947
3024,14.7734,1538.64,0.492128
3060,14.9492,1553,0.496734
3096,15.125,1574.54,0.501723
3132,15.3008,1591.64,0.508082
3168,15.4766,1604.38,0.515045
3204,15.6523,1637.46,0.521175
3240,15.8281,1649.84,0.524983
3276,16.0039,1670.66,0.531127
3312,16.1797,1689.55,0.538148
3348,16.3555,1710.58,0.543448
3384,16.53125,1736.15,0.549814
3420,16.707,1749.91,0.5548811
3456,16.8828,1779.79,0.561715
3492,17.0586,1796.87,0.56728
3528,17.2344,1820.49,0.573349
3564,17.4102,1832.06,0.578574
3600,17.5859,1865.17,0.585923
3636,17.7617,1878.34,0.591198
3672,17.9375,1897.99,0.597246
3708,18.1133,1920.89,0.601609
3744,18.2891,1934.8,0.609148
3780,18.4648,1960.54,0.615052
3816,18.6406,1990.04,0.620427
3852,18.8164,2009.28,0.623399
3888,18.9922,2017.7,0.631281
3924,19.168,2048.08,0.6364131
3960,19.34375,2068.99,0.643308
3996,19.5195,2083.08,0.64893
4032,19.6953,2107.35,0.655489
4068,19.8711,2120.33,0.661215
4104,20.0469,2149.88,0.666275
4140,20.2227,2165.9,0.672841
4176,20.3984,2184.52,0.678141
4212,20.5742,2207.19,0.683684
4248,20.75,2220.24,0.690966
4284,20.9258,2246.75,0.695654
4320,21.1016,2270.07,0.700951
4356,21.2773,2283.95,0.708622
4392,21.4531,2300.37,0.71478
4428,21.6289,2327.02,0.719951
4464,21.8047,2329.37,0.725162
4500,21.9805,2357.88,0.731757
4536,22.15625,2387.24,0.736953
4572,22.332,2400.62,0.744689
4608,22.5078,2426.31,0.748683
4644,22.6836,2439.08,0.754126
4680,22.8594,2460.64,0.761082
4716,23.0352,2480.6,0.766554
4752,23.2109,2488.64,0.773596
4788,23.3867,2526.94,0.77842
4824,23.5625,2544.99,0.784886
4860,23.7383,2570.16,0.788584
4896,23.9141,2583.06,0.795668
4932,24.0898,2596.82,0.802392
4968,24.2656,2623.25,0.807921
5004,24.4414,2653.13,0.813128
5040,24.6172,2667.59,0.818746
5076,24.793,2681.18,0.824679
5112,24.96875,2708.47,0.831023
5148,25.1445,2726.42,0.836992
5184,25.3203,2743.51,0.8423388
5220,25.4961,2759.89,0.848293
5256,25.6719,2781.92,0.854069
5292,25.8477,2805.31,0.861118
5328,26.0234,2818.34,0.865574
5364,26.1992,2849.37,0.872465
5400,26.375,2850.08,0.878284
5436,26.5508,2890.2,0.883716
5472,26.7266,2896.55,0.891266
5508,26.9023,2914.97,0.895911
5544,27.0781,2947.45,0.901651
5580,27.2539,2959.33,0.907513
5616,27.4297,2974.11,0.913185
5652,27.6055,2988.57,0.918378
5688,27.78125,3019.96,0.924486
5724,27.957,3043.78,0.929435
5760,28.1328,3047.03,0.934989
5796,28.3086,3073.41,0.9432292
5832,28.4844,3093.92,0.948533
5868,28.6602,3102.52,0.954888
5904,28.8359,3134.12,0.961107
5940,29.0117,3156.98,0.965395
5976,29.1875,3168.7,0.97244
6012,29.3633,3183.86,0.977762
6048,29.5391,3200.48,0.984435
6084,29.7148,3237.81,0.989478
6120,29.8906,3236.74,0.994091
6156,30.0664,3265.31,1.000843
6192,30.2422,3276.26,1.0076
6228,30.418,3294.16,1.01295
6264,30.59375,3318.74,1.01987
6300,30.7695,3340.68,1.02426
6336,30.9453,3356.36,1.03035
6372,31.1211,3373.63,1.0352
6408,31.2969,3379.55,1.041348
6444,31.4727,3403.58,1.04856
6480,31.6484,3432.43,1.05375
6516,31.8242,3432.28,1.06026
6552,32.0,3469.64,1.06587
6588,32.1758,3496,1.07146
6624,32.3516,3504,1.07696
6660,32.5273,3523.24,1.082375
6696,32.7031,3552.39,1.0893
6732,32.8789,3570.99,1.09462
6768,33.0547,3583.71,1.10089
6804,33.2305,3592.93,1.105
6840,33.40625,3626.61,1.11247
6876,33.582,3639.22,1.11928
6912,33.7578,3654.57,1.1237
6948,33.9336,3673.41,1.130687
6984,34.1094,3688.37,1.13392
7020,34.2852,3695.34,1.141
7056,34.4609,3728.11,1.14756
7092,34.6367,3737.25,1.15362
7128,34.8125,3754.42,1.15778
7164,34.9883,3786.32,1.165334
7200,35.1641,3794.19,1.17051
7236,35.3398,3824.73,1.1762
7272,35.5156,3838.78,1.18206
7308,35.6914,3852.98,1.18944
7344,35.8672,3871.19,1.19569
7380,36.043,3883.97,1.20023
7416,36.21875,3903.9,1.20598
7452,36.3945,3921.95,1.21186
7488,36.5703,3939.17,1.21764
7524,36.7461,3966.94,1.22403
7560,36.9219,3984.97,1.22907
7596,37.0977,4000.5,1.23688
7632,37.2734,4025.57,1.24186
7668,37.4492,4036.38,1.246326
7704,37.625,4049.52,1.25317
7740,37.8008,4069.76,1.25858
7776,37.9766,4083.89,1.26534
7812,38.1523,4103.42,1.26866
7848,38.3281,4133.46,1.27709
7884,38.5039,4135.5,1.28237
7920,38.6797,4162.32,1.28796
7956,38.8555,4180.65,1.29391
7992,39.03125,4207.79,1.30074
8028,39.207,4213.48,1.30654
8064,39.3828,4233.4,1.31179
8100,39.5586,4256.14,1.31812
8136,39.7344,4268.11,1.3229
8172,39.9102,4281.03,1.3293
8208,40.0859,4305.72,1.33467
8244,40.2617,4326.91,1.34246
8280,40.4375,4326.44,1.34681
8316,40.6133,4352.34,1.35172
8352,40.7891,4374.64,1.35884
8388,40.9648,4380.35,1.36518
8424,41.1406,4403.6,1.37196
8460,41.3164,4424.22,1.37766
8496,41.4922,4441.46,1.38252
8532,41.668,4467.45,1.38855
8568,41.84375,4479.59,1.39496
8604,42.0195,4498.63,1.40048
8640,42.1953,4506.63,1.406
8676,42.3711,4528.55,1.412133
8712,42.5469,4533.57,1.41782
8748,42.7227,4552.92,1.42175
8784,42.8984,4581.76,1.4283
8820,43.0742,4594.13,1.43551
8856,43.25,4622.58,1.44099
8892,43.4258,4619.86,1.44633
8928,43.6016,4637.14,1.453
8964,43.7773,4657.75,1.45662
9000,43.9531,4668.45,1.46404
9036,44.1289,4693.42,1.4692
9072,44.3047,4704.03,1.47529
9108,44.4805,4729.43,1.48176
9144,44.65625,4745.68,1.48647
9180,44.832,4765.03,1.493758
9216,45.0078,4779.6,1.49883
9252,45.1836,4795.99,1.50453
9288,45.3594,4808.27,1.510756
9324,45.5352,4833.12,1.5168
9360,45.7109,4836.44,1.52396
9396,45.8867,4857.31,1.52862
9432,46.0625,4887.7,1.53431
9468,46.2383,4895.3,1.5392
9504,46.4141,4904.99,1.545943
9540,46.5898,4920.71,1.55121
9576,46.7656,4938.93,1.55739
9612,46.9414,4956.73,1.56419
9648,47.1172,4971.82,1.56858
9684,47.293,5003.02,1.57407
9720,47.46875,5012.75,1.58028
9756,47.6445,5024.64,1.587646
9792,47.8203,5045.67,1.59372
9828,47.9961,5060.21,1.59819
9864,48.1719,5087.95,1.60464
9900,48.3477,5098.63,1.61016
9936,48.5234,5102.11,1.61731
9972,48.6992,5130.25,1.62286
10008,48.875,5142.2,1.62803
10044,49.0508,5155.7,1.63419
10080,49.2266,5168.88,1.63752
10116,49.4023,5190.72,1.6449
10152,49.5781,5202.78,1.65023
10188,49.7539,5227.42,1.65856
10224,49.9297,5234.73,1.66371
10260,50.1055,5251.66,1.6695
10296,50.28125,5264.19,1.67606
10332,50.457,5288.66,1.6818
10368,50.6328,5305.27,1.68593
10404,50.8086,5319.24,1.69142
10440,50.9844,5340.33,1.69792
10476,51.1602,5357.05,1.70602
10512,51.3359,5376.76,1.71009
10548,51.5117,5390,1.7148
10584,51.6875,5397.5,1.72166
10598,51.7559,180.178,1.76399