Folder: DACS/ASM109_2021_data/MTS/90 (part 3)

File: MTS_90_7.csv
,Time [s],Load [N],Displacement [mm]
0,0.0078125,-375.452,0.0005543232
40,0.203125,-342.648,0.00507832
80,0.3984375,-319.014,0.0113583
120,0.59375,-296.111,0.0178385
160,0.7890625,-263.712,0.0258672
200,0.984375,-244.949,0.0308704
240,1.17969,-217.004,0.0396502
280,1.375,-182.671,0.04540801
320,1.57031,-165.885,0.0521028
360,1.765625,-140.499,0.0573885
400,1.96094,-103.321,0.0645733
440,2.15625,-90.771,0.071876
480,2.35156,-60.8304,0.0788355
520,2.546875,-29.6147,0.0851262
560,2.74219,-18.2943,0.0909913
600,2.9375,14.1753,0.0972283
640,3.13281,49.4099,0.104878
680,3.328125,70.4666,0.112517
720,3.52344,89.9679,0.117245
760,3.71875,115.571,0.122688
800,3.91406,140.642,0.129139
840,4.109375,169.692,0.135155
880,4.30469,196.547,0.143262
920,4.5,229.424,0.149753
960,4.69531,240.986,0.153315
1000,4.890625,270.098,0.161719
1040,5.08594,291.829,0.168407
1080,5.28125,325.85,0.173936
1120,5.47656,348.827,0.180459
1160,5.671875,367.084,0.186338
1200,5.86719,394.677,0.19421
1240,6.0625,417.593,0.202249
1280,6.25781,445.738,0.207177
1320,6.453125,472.14,0.214877
1360,6.64844,486.742,0.220417
1400,6.84375,505.956,0.22615
1440,7.03906,545.918,0.234901
1480,7.234375,554.919,0.239893
1520,7.42969,589.387,0.247028
1560,7.625,615.481,0.2528286
1600,7.82031,636.965,0.259316
1640,8.015625,658.472,0.266776
1680,8.21094,685.972,0.271811
1720,8.40625,705.958,0.280023
1760,8.60156,741.459,0.287747
1800,8.796875,760.982,0.291606
1840,8.99219,781.106,0.298998
1880,9.1875,805.986,0.3056
1920,9.38281,835.654,0.311233
1960,9.578125,861.567,0.317849
2000,9.77344,880.708,0.324218
2040,9.96875,907.391,0.330981
2080,10.1641,927.077,0.337472
2120,10.3594,958.987,0.343398
2160,10.5547,972.678,0.34976
2200,10.75,1000.46,0.356716
2240,10.9453,1036.64,0.364734
2280,11.1406,1053.77,0.370442
2320,11.3359,1070.39,0.3770864
2360,11.53125,1102.02,0.382973
2400,11.7266,1112.09,0.39049
2440,11.9219,1148.27,0.395494
2480,12.1172,1170.24,0.402009
2520,12.3125,1194.66,0.408114
2560,12.5078,1216.38,0.416347
2600,12.7031,1238.97,0.422333
2640,12.8984,1260.05,0.429153
2680,13.09375,1292.18,0.435312
2720,13.2891,1309.49,0.440036
2760,13.4844,1340.84,0.447993
2800,13.6797,1366.41,0.454935
2840,13.875,1384.97,0.4610002
2880,14.0703,1401.62,0.468031
2920,14.2656,1440.49,0.474544
2960,14.4609,1459.79,0.481507
3000,14.65625,1484.39,0.488652
3040,14.8516,1500.44,0.494957
3080,15.0469,1527.89,0.501194
3120,15.2422,1562.71,0.506984
3160,15.4375,1573.15,0.514448
3200,15.6328,1601.89,0.521075
3240,15.8281,1618.18,0.525917
3280,16.0234,1659.76,0.534461
3320,16.21875,1670.54,0.540859
3360,16.4141,1700.91,0.54642
3400,16.6094,1713.43,0.554008
3440,16.8047,1747.4,0.559162
3480,17.0,1764.58,0.567012
3520,17.1953,1789.73,0.572623
3560,17.3906,1814.55,0.579329
3600,17.5859,1843.1,0.58549
3640,17.78125,1852.09,0.590951
3680,17.9766,1884.87,0.598551
3720,18.1719,1900.75,0.604577
3760,18.3672,1925.74,0.611111
3800,18.5625,1949.77,0.617795
3840,18.7578,1969.22,0.622619
3880,18.9531,1990.97,0.632114
3920,19.1484,2020.98,0.637593
3960,19.34375,2037.45,0.643405
4000,19.5391,2068.5,0.650872
4040,19.7344,2089.9,0.657864
4080,19.9297,2113.59,0.6627202
4120,20.125,2136.39,0.670305
4160,20.3203,2157.61,0.677315
4200,20.5156,2172.36,0.682136
4240,20.7109,2195.94,0.690787
4280,20.90625,2221.39,0.697403
4320,21.1016,2257.58,0.701541
4360,21.2969,2263.77,0.707706
4400,21.4922,2282.34,0.715148
4440,21.6875,2314.1,0.721475
4480,21.8828,2338.7,0.728073
4520,22.0781,2360.5,0.735437
4560,22.2734,2392.41,0.740247
4600,22.46875,2410.91,0.747274
4640,22.6641,2420.71,0.753118
4680,22.8594,2456.59,0.761544
4720,23.0547,2468.2,0.766779
4760,23.25,2487.82,0.774876
4800,23.4453,2508.31,0.781184
4840,23.6406,2535.32,0.787693
4880,23.8359,2549.58,0.7945919
4920,24.03125,2572.08,0.800875
4960,24.2266,2597.94,0.806293
5000,24.4219,2622.09,0.81326
5040,24.6172,2637.08,0.819515
5080,24.8125,2662.61,0.826439
5120,25.0078,2691,0.833699
5160,25.2031,2702.5,0.840268
5200,25.3984,2717.12,0.846198
5240,25.59375,2744.03,0.853204
5280,25.7891,2775.97,0.859905
5320,25.9844,2789.88,0.865238
5360,26.1797,2804.32,0.870745
5400,26.375,2834.19,0.877976
5440,26.5703,2853.98,0.883942
5480,26.7656,2879.1,0.890815
5520,26.9609,2891.47,0.898819
5560,27.15625,2921.93,0.904727
5600,27.3516,2943.43,0.911143
5640,27.5469,2963.54,0.917205
5680,27.7422,2994.45,0.924783
5720,27.9375,2998.14,0.932461
5760,28.1328,3020.47,0.937082
5800,28.3281,3044.31,0.944642
5840,28.5234,3069.23,0.950042
5880,28.71875,3089.78,0.956004
5920,28.9141,3108.91,0.964215
5960,29.1094,3124.95,0.970534
6000,29.3047,3157.75,0.976217
6040,29.5,3174.98,0.982343
6080,29.6953,3196,0.989363
6120,29.8906,3220.64,0.995057
6160,30.0859,3225.99,1.002084
6200,30.28125,3256.28,1.00905
6240,30.4766,3276.33,1.0157
6280,30.6719,3296.63,1.02119
6320,30.8672,3313.49,1.028
6360,31.0625,3333.5,1.03435
6400,31.2578,3364.81,1.03993
6440,31.4531,3378.3,1.04774
6480,31.6484,3402.05,1.05461
6520,31.84375,3426.98,1.06113
6560,32.0391,3440.87,1.06754
6600,32.2344,3467.14,1.07484
6640,32.4297,3490.4,1.08273
6680,32.625,3503.31,1.08597
6720,32.8203,3519.56,1.09195
6760,33.0156,3544.66,1.100682
6800,33.2109,3562.81,1.10599
6840,33.40625,3592.32,1.11296
6880,33.6016,3613.55,1.12021
6920,33.7969,3615.67,1.12601
6960,33.9922,3646.78,1.133709
7000,34.1875,3670.21,1.13858
7040,34.3828,3689.13,1.14599
7080,34.5781,3710.86,1.15177
7120,34.7734,3728.53,1.1574
7160,34.96875,3761.74,1.16489
7200,35.1641,3763.63,1.17096
7240,35.3594,3792.84,1.17767
7280,35.5547,3802.53,1.18455
7320,35.75,3822.61,1.19055
7360,35.9453,3845.32,1.19787
7400,36.1406,3870.94,1.20361
7440,36.3359,3897.61,1.21052
7480,36.53125,3907.93,1.21737
7520,36.7266,3926.93,1.2244
7560,36.9219,3951.7,1.23097
7600,37.1172,3960.83,1.2366
7640,37.3125,3986.71,1.24315
7680,37.5078,4000.33,1.25066
7720,37.7031,4015.73,1.25608
7760,37.8984,4045.86,1.26253
7800,38.09375,4062.41,1.26892
7840,38.2891,4077.55,1.27687
7880,38.4844,4110.54,1.28106
7920,38.6797,4119.51,1.28819
7960,38.875,4140.74,1.29348
8000,39.0703,4169.92,1.30101
8040,39.2656,4174.94,1.30818
8080,39.4609,4206.13,1.31333
8120,39.65625,4214.76,1.32181
8160,39.8516,4244.64,1.32871
8200,40.0469,4269.92,1.33508
8240,40.2422,4281.43,1.34013
8280,40.4375,4294.34,1.34875
8320,40.6328,4306.79,1.3542
8360,40.8281,4337.09,1.36051
8400,41.0234,4362.91,1.36775
8440,41.21875,4382.21,1.373
8480,41.4141,4394.82,1.37989
8520,41.6094,4409.27,1.38585
8560,41.8047,4438.35,1.39207
8600,42.0,4452.17,1.39933
8640,42.1953,4471.79,1.4063
8680,42.3906,4490.2,1.41039
8720,42.5859,4500.82,1.41904
8760,42.78125,4523.12,1.4259
8800,42.9766,4539.68,1.43171
8840,43.1719,4564.12,1.43795
8880,43.3672,4581.09,1.44329
8920,43.5625,4604.05,1.44973
8960,43.7578,4617.16,1.45744
9000,43.9531,4641.16,1.46469
9040,44.1484,4657.26,1.47053
9080,44.34375,4687.72,1.47853
9120,44.5391,4702.04,1.48484
9160,44.7344,4713.82,1.49146
9200,44.9297,4732.41,1.497817
9240,45.125,4753.17,1.50463
9280,45.3203,4776.45,1.51101
9320,45.5156,4789.27,1.51789
9360,45.7109,4815.95,1.52378
9400,45.90625,4831.94,1.5291
9440,46.1016,4839.3,1.53696
9480,46.2969,4860.67,1.542238
9520,46.4922,4878.5,1.54985
9560,46.6875,4893.02,1.55409
9600,46.8828,4925.25,1.56119
9640,47.0781,4943.32,1.56811
9680,47.2734,4942.98,1.57513
9720,47.46875,4975.86,1.58119
9760,47.6641,4994.55,1.58744
9800,47.8594,5008.83,1.59389
9840,48.0547,5027.83,1.60054
9880,48.25,5042.93,1.60881
9920,48.4453,5067.94,1.61488
9960,48.6406,5090.92,1.62062
10000,48.8359,5104.57,1.62935
10040,49.03125,5105.95,1.63439
10080,49.2266,5138.64,1.638912
10120,49.4219,5152.44,1.64818
10160,49.6172,5164.85,1.65322
10200,49.8125,5191.66,1.65981
10240,50.0078,5194.15,1.66698
10280,50.2031,5214.71,1.67273
10320,50.3984,5244.33,1.67913
10360,50.59375,5259.21,1.68594
10400,50.7891,5274.09,1.69053
10440,50.9844,5297.38,1.69788
10480,51.1797,5319.26,1.70517
10520,51.375,5322.64,1.71222
10560,51.5703,5345.92,1.71728
10600,51.7656,5352.38,1.72391
10640,51.9609,5389.66,1.73217
10680,52.15625,5398.24,1.73841
10720,52.3516,5416.52,1.74293
10760,52.5469,5433.08,1.74979
10800,52.7422,5448.2,1.75832
10840,52.9375,5472.43,1.76459
10880,53.1328,5481.12,1.77197
10920,53.3281,5496.43,1.77665
10960,53.5234,5518.59,1.78314
11000,53.71875,5541.7,1.78895
11040,53.9141,5552.3,1.7964
11080,54.1094,5575.18,1.80336
11120,54.3047,5587.76,1.81021
11160,54.5,5607.5,1.81568
11200,54.6953,5615.15,1.82259
11240,54.8906,5630.68,1.82714
11280,55.0859,5657.78,1.83576
11320,55.28125,5667.69,1.84075
11360,55.4766,5696.92,1.84871
11400,55.6719,5702.35,1.85379
11440,55.8672,5715.56,1.86234
11480,56.0625,5748.02,1.86779
11520,56.2578,5758.68,1.87472
11560,56.4531,5775.17,1.87921
11600,56.6484,5799.49,1.88876
11640,56.84375,5799.06,1.89504
11680,57.0391,5821.18,1.90095
11720,57.2344,5849.44,1.90806
11751,57.3857,1484.39,1.9124

File: MTS_90_8.csv
,Time [s],Load [N],Displacement [mm]
0,0.00683594,-430.079,0.000926256
45,0.2265625,-394.606,0.00570059
90,0.446289,-367.797,0.01266
135,0.666016,-342.576,0.0205994
180,0.885742,-321.484,0.0273085
225,1.10547,-272.508,0.0351191
270,1.3252,-245.236,0.0421035
315,1.54492,-219.642,0.0507796
360,1.76465,-193.398,0.05797863
405,1.984375,-151.884,0.0650167
450,2.2041,-136.005,0.0714862
495,2.42383,-94.1711,0.0780809
540,2.64355,-70.8625,0.0868213
585,2.86328,-38.4331,0.0943601
630,3.08301,-7.4103,0.101048
675,3.30273,19.9142,0.108401
720,3.52246,47.0812,0.114319
765,3.74219,87.5885,0.123135
810,3.96191,104.088,0.131561
855,4.18164,142.61,0.1386416
900,4.40137,151.274,0.145562
945,4.62109,200.439,0.153168
990,4.84082,229.135,0.158329
1035,5.06055,259.743,0.166168
1080,5.28027,270.093,0.173661
1125,5.5,316.886,0.181603
1170,5.71973,333.27,0.189521
1215,5.93945,361.716,0.194975
1260,6.15918,404.327,0.205189
1305,6.37891,427.597,0.211837
1350,6.59863,451.695,0.218486
1395,6.81836,480.641,0.225838
1440,7.03809,506.328,0.233227
1485,7.25781,542.324,0.241367
1530,7.47754,588.056,0.248133
1575,7.69727,585.242,0.254753
1620,7.91699,623.822,0.263211
1665,8.13672,656.89,0.267713
1710,8.35645,680.431,0.27675
1755,8.57617,711.497,0.284178
1800,8.7959,744.466,0.292007
1845,9.015625,778.146,0.298791
1890,9.23535,798.16,0.305468
1935,9.45508,822.298,0.314877
1980,9.6748,862.194,0.321618
2025,9.89453,885.639,0.329508
2070,10.1143,916.887,0.334625
2115,10.334,936.65,0.343237
2160,10.5537,972.425,0.349796
2205,10.7734,1009.44,0.3571558
2250,10.9932,1026.66,0.364097
2295,11.2129,1061.93,0.372806
2340,11.4326,1087.46,0.381206
2385,11.6523,1109.73,0.386692
2430,11.8721,1142.02,0.394503
2475,12.0918,1168.67,0.40177
2520,12.3115,1189.03,0.409477
2565,12.53125,1216.8,0.417334
2610,12.751,1234.02,0.422881
2655,12.9707,1279.15,0.431153
2700,13.19043,1305.74,0.439528
2745,13.4102,1334.22,0.44598
2790,13.6299,1357.74,0.451412
2835,13.8496,1389.26,0.462695
2880,14.0693,1402.15,0.468256
2925,14.2891,1445.15,0.47493
2970,14.5088,1453.49,0.481267
3015,14.7285,1498.64,0.488448
3060,14.9482,1515.1,0.496109
3105,15.168,1545.21,0.505664
3150,15.3877,1570.11,0.510367
3195,15.6074,1586.49,0.517302
3240,15.8271,1620.55,0.525427
3285,16.0469,1648.98,0.534056
3330,16.2666,1683.03,0.540322
3375,16.4863,1707.18,0.5474925
3420,16.7061,1728.2,0.554591
3465,16.9258,1752.56,0.562788
3510,17.1455,1784.31,0.569737
3555,17.3652,1796.28,0.577065
3600,17.585,1838.16,0.584743
3645,17.8047,1852.56,0.591838
3690,18.0244,1888.36,0.598118
3735,18.2441,1911.38,0.60742
3780,18.4639,1932.83,0.614287
3825,18.6836,1972.76,0.622187
3870,18.90332,1985.89,0.627093
3915,19.123,2003.75,0.633792
3960,19.3428,2033.86,0.643798
4005,19.5625,2068.09,0.650668
4050,19.7822,2108.17,0.659037
4095,20.002,2111.6,0.664794
4140,20.22168,2145.31,0.6720221
4185,20.4414,2179.4,0.679214
4230,20.6611,2190.23,0.688033
4275,20.8809,2214.14,0.6936264
4320,21.1006,2243.23,0.702528
4365,21.3203,2279.88,0.710642
4410,21.54,2307.06,0.716711
4455,21.7598,2317.21,0.722748
4500,21.9795,2343.41,0.731428
4545,22.1992,2385.09,0.7387054
4590,22.4189,2394.72,0.747081
4635,22.6387,2424.06,0.75404
4680,22.8584,2442.9,0.761107
4725,23.0781,2472.93,0.768288
4770,23.2979,2511.46,0.775352
4815,23.5176,2521.14,0.784693
4860,23.7373,2548.79,0.790018
4905,23.957,2578.75,0.797932
4950,24.1768,2601.06,0.803851
4995,24.3965,2633.06,0.81223
5040,24.6162,2659.45,0.821207
5085,24.8359,2682.63,0.826038
5130,25.0557,2711.51,0.834446
5175,25.2754,2739.8,0.841548
5220,25.4951,2749.5,0.847864
5265,25.7148,2778.51,0.855206
5310,25.93457,2803.01,0.86252
5355,26.1543,2834.44,0.870327
5400,26.374,2858.39,0.879239
5445,26.59375,2881.48,0.885068
5490,26.8135,2912.7,0.891087
5535,27.0332,2929.36,0.899559
5580,27.25293,2959.21,0.907431
5625,27.4727,2974.84,0.914254
5670,27.6924,2993.2,0.922226
5715,27.9121,3014.12,0.929003
5760,28.1318,3049.36,0.933666
5805,28.3516,3079.2,0.942303
5850,28.5713,3110,0.95119
5895,28.791,3111.17,0.959669
5940,29.0107,3137.89,0.96498
5985,29.2305,3171.36,0.9735775
6030,29.4502,3190.89,0.979868
6075,29.6699,3216.11,0.988079
6120,29.8896,3241.34,0.995203
6165,30.1094,3270.17,1.00188
6210,30.3291,3284.41,1.00887
6255,30.5488,3305.12,1.01753
6300,30.7686,3331.41,1.025269
6345,30.9883,3369.61,1.03315
6390,31.208,3389.25,1.0394
6435,31.4277,3400.76,1.04487
6480,31.6475,3428.07,1.05347
6525,31.8672,3466.45,1.05973
6570,32.0869,3479.18,1.06899
6615,32.3066,3498.41,1.07513
6660,32.5264,3524.76,1.08428
6705,32.7461,3547.58,1.08987
6750,32.96582,3573.5,1.0988
6795,33.1855,3592.29,1.10587
6840,33.4053,3607.07,1.11298
6885,33.625,3648.21,1.11927
6930,33.8447,3669.07,1.12735
6975,34.0645,3686.69,1.13436
7020,34.28418,3698.93,1.14095
7065,34.5039,3744.69,1.148994
7110,34.7236,3771.16,1.15511
7155,34.9434,3783.38,1.16381
7200,35.1631,3816.25,1.17135
7245,35.3828,3822.75,1.17891
7290,35.6025,3849.93,1.18631
7335,35.8223,3870.62,1.19306
7380,36.042,3904.68,1.20048
7425,36.2617,3930.82,1.2079
7470,36.4814,3940.21,1.21505
7515,36.7012,3973.11,1.22213
7560,36.9209,3995.47,1.2284
7605,37.1406,4017.61,1.23678
7650,37.3604,4047.45,1.24466
7695,37.5801,4053.56,1.25252
7740,37.7998,4086.1,1.258657
7785,38.0195,4120.23,1.26536
7830,38.2393,4143.68,1.27291
7875,38.459,4148.23,1.28194
7920,38.6787,4168.42,1.2892
7965,38.8984,4194.65,1.29635
8010,39.1182,4222.51,1.30004
8055,39.3379,4230.9,1.31004
8100,39.5576,4256.52,1.31687
8145,39.7773,4288.52,1.32528
8190,39.99707,4304.16,1.33113
8235,40.2168,4314.98,1.33775
8280,40.4365,4357.45,1.34675
8325,40.65625,4385.9,1.35323
8370,40.876,4391.42,1.36295
8415,41.0957,4411.1,1.36927
8460,41.31543,4431.53,1.37576
8505,41.5352,4457.89,1.38474
8550,41.7549,4485.77,1.39106
8595,41.9746,4510.26,1.399008
8640,42.1943,4518.95,1.40639
8685,42.4141,4559.22,1.41149
8730,42.6338,4559.49,1.41862
8775,42.8535,4589.76,1.42686
8820,43.0732,4607.2,1.43406
8865,43.293,4625.78,1.44076
8910,43.5127,4653.7,1.44844
8955,43.7324,4672.66,1.45681
9000,43.9521,4697.42,1.46323
9045,44.1719,4719.76,1.4708
9090,44.3916,4737.75,1.47689
9135,44.6113,4768.02,1.48555
9180,44.8311,4783.44,1.49463
9225,45.0508,4809.16,1.50101
9270,45.2705,4829.38,1.50734
9315,45.4902,4846.74,1.51565
9360,45.71,4847.87,1.52161
9405,45.9297,4864.03,1.53084
9450,46.1494,4891.08,1.53656
9495,46.3691,4931.56,1.545496
9540,46.5889,4934.49,1.5532
9585,46.8086,4970.9,1.5599
9630,47.02832,4994.35,1.56716
9675,47.248,5010.46,1.57451
9720,47.4678,5034.26,1.57991
9765,47.6875,5053.08,1.58815
9810,47.9072,5076.39,1.59554
9855,48.127,5088.08,1.60243
9900,48.34668,5111.37,1.61013
9945,48.5664,5125.73,1.61794
9990,48.7861,5144.71,1.62489
10035,49.0059,5166.79,1.63187
10080,49.2256,5204.74,1.63976
10125,49.4453,5219.73,1.64664
10170,49.665,5237.15,1.65464
10215,49.8848,5248.27,1.66249
10260,50.1045,5278.04,1.66953
10305,50.3242,5296.92,1.67501
10350,50.5439,5315.67,1.68324
10395,50.7637,5335.76,1.69113
10440,50.9834,5350.85,1.69952
10485,51.2031,5381.7,1.70545
10530,51.4229,5403.59,1.71064
10575,51.6426,5418.66,1.71921
10620,51.8623,5441.49,1.7272
10665,52.082,5474.98,1.73705
10710,52.3018,5485.12,1.74205
10755,52.5215,5497.88,1.74981
10800,52.7412,5513.17,1.75822
10845,52.9609,5542.74,1.7635
10890,53.1807,5553.18,1.77232
10935,53.4004,5561.69,1.77952
10980,53.6201,5586.86,1.7858
11025,53.8398,5611.43,1.7942
11070,54.0596,5641.09,1.80132
11115,54.2793,5661.9,1.80766
11160,54.499,5681.29,1.815623
11205,54.71875,5706.07,1.82319
11250,54.9385,5725.64,1.82932
11295,55.1582,5741.06,1.83798
11340,55.3779,5754.01,1.84454
11385,55.5977,5774.46,1.85099
11430,55.8174,5796.17,1.85997
11475,56.0371,5815.39,1.86738
11520,56.2568,5821.81,1.87384
11565,56.4766,5873.01,1.88102
11610,56.6963,5882.75,1.88863
11655,56.916,5888.81,1.895839
11700,57.1357,5909.64,1.90326
11745,57.3555,5933.02,1.91134
11790,57.5752,5952.91,1.91733
11835,57.7949,5964.27,1.923902
11880,58.0146,5982.73,1.93141
11925,58.2344,6013.13,1.93994
11970,58.4541,6023.32,1.94631
12015,58.6738,6039.9,1.95573
12060,58.8936,6059.16,1.96267
12105,59.1133,6090.57,1.96895
12150,59.333,6100.05,1.97516
12195,59.5527,6117.44,1.98345
12240,59.7725,6127.52,1.99346
12285,59.9922,6146.4,1.99829
12330,60.2119,6172.2,2.00534
12375,60.4316,6182.14,2.01322
12420,60.6514,6204.24,2.02187
12465,60.8711,6231.48,2.02918
12510,61.0908,6245.37,2.03521
12555,61.3105,6266.67,2.041719
12600,61.5303,6283.69,2.04975
12645,61.75,6284.11,2.05675
12690,61.9697,6318.63,2.06482
12735,62.1895,6330.29,2.07242
12780,62.4092,6340.81,2.07938
12825,62.6289,6372.51,2.0871
12870,62.8486,6374.34,2.09413
12915,63.0684,6392.46,2.101
12960,63.2881,6415.83,2.1086
13005,63.5078,6458.77,2.11537
13050,63.7275,6449.87,2.12334
13095,63.9473,6474.58,2.12952
13140,64.167,6473.11,2.13728
13185,64.3867,6513.49,2.145
13230,64.6064,6515.12,2.15235
13258,64.7432,1674.53,2.17796