Folder: DACS/ASM109_2021_data/MTS/Quasi (part 4)

File: MTS_quasi_8.csv
,Time [s],Load [N],Displacement [mm]
0,0.00683594,-260.084,-0.00138491
84,0.416992,-66.4301,0.0129484
168,0.827148,105.885,0.0264779
252,1.2373,293.107,0.0399345
336,1.64746,468.613,0.0523755
420,2.05762,643.561,0.0667915
504,2.46777,808.863,0.081224
588,2.87793,978.125,0.0952703
672,3.28809,1133.27,0.109578
756,3.69824,1293.27,0.120033
840,4.1084,1454.46,0.1344
924,4.51855,1617.8,0.147646
1008,4.92871,1767.63,0.161708
1092,5.33887,1951.06,0.175942
1176,5.74902,2125.9,0.189758
1260,6.15918,2295.42,0.2033937
1344,6.56934,2450.88,0.217938
1428,6.97949,2631.98,0.231272
1512,7.38965,2783.75,0.244614
1596,7.7998,2940.85,0.258029
1680,8.20996,3090.33,0.270756
1764,8.62012,3236.31,0.285251
1848,9.03027,3409.62,0.299354
1932,9.44043,3597.42,0.312593
2016,9.85059,3770.77,0.326078
2100,10.2607,3924.18,0.340709
2184,10.6709,4082.61,0.353205
2268,11.0811,4245.87,0.367435
2352,11.4912,4409.86,0.379767
2436,11.9014,4536.45,0.394105
2520,12.3115,4681.62,0.407574
2604,12.7217,4871.13,0.42256
2688,13.1318,5042.79,0.434785
2772,13.542,5218.15,0.450415
2856,13.9521,5384.79,0.465311
2940,14.3623,5526.12,0.477785
3024,14.7725,5696.32,0.489838
3108,15.1826,5862.13,0.50473
3192,15.5928,5999.56,0.51604
3276,16.00293,6157.29,0.530335
3360,16.4131,6323.37,0.544715
3444,16.8232,6491.56,0.559892
3528,17.2334,6642.54,0.572202
3612,17.6436,6813.84,0.586633
3696,18.0537,6978,0.600493
3780,18.4639,7139.13,0.615174
3864,18.874,7285.14,0.626209
3948,19.28418,7446.78,0.640368
4032,19.6943,7606.31,0.655271
4116,20.1045,7745.55,0.667707
4200,20.5146,7895,0.682094
4284,20.9248,8065.94,0.695871
4368,21.335,8233.07,0.709861
4452,21.7451,8389.26,0.724025
4536,22.1553,8544.27,0.737356
4620,22.56543,8700.49,0.751059
4704,22.9756,8866.79,0.764491
4788,23.3857,9009.74,0.777748
4872,23.7959,9146.81,0.7913996
4956,24.2061,9291.15,0.804762
5040,24.6162,9463.81,0.817572
5124,25.0264,9606.62,0.832546
5208,25.4365,9779.88,0.846885
5292,25.84668,9943.79,0.861128
5376,26.2568,10088.5,0.873054
5460,26.667,10235.7,0.886755
5544,27.0771,10392.8,0.900363
5628,27.4873,10539.4,0.912727
5712,27.8975,10692.8,0.926464
5796,28.3076,10835.6,0.94274
5880,28.7178,10998.1,0.955253
5964,29.12793,11154.3,0.968975
6048,29.5381,11329.8,0.982829
6132,29.9482,11480.7,0.996581
6216,30.3584,11642.9,1.01068
6300,30.7686,11778.3,1.023113
6384,31.1787,11934.7,1.03721
6468,31.5889,12076.7,1.04984
6552,31.999,12218.8,1.06625
6636,32.40918,12368.7,1.07792
6720,32.8193,12526.8,1.09236
6804,33.2295,12687,1.1056
6888,33.6396,12841.7,1.11954
6972,34.0498,12996.3,1.13405
7056,34.46,13144,1.14732
7140,34.8701,13290.7,1.159556
7224,35.2803,13446.2,1.17552
7308,35.69043,13583.9,1.18745
7392,36.1006,13744,1.20234
7476,36.5107,13885.6,1.21494
7560,36.9209,14038.1,1.22829
7644,37.3311,14197.5,1.24236
7728,37.7412,14344.2,1.25589
7812,38.1514,14494.3,1.27017
7896,38.5615,14637.8,1.28357
7980,38.97168,14789.6,1.29572
8064,39.3818,14923.2,1.30988
8148,39.792,15087.8,1.32507
8232,40.2021,15232.2,1.33594
8316,40.6123,15371.7,1.35204
8400,41.0225,15532.7,1.36538
8484,41.4326,15686.6,1.37826
8568,41.8428,15841.5,1.39227
8652,42.25293,15993.1,1.40581
8736,42.6631,16135.4,1.41991
8820,43.0732,16289.4,1.433068
8904,43.4834,16417.9,1.447
8988,43.8936,16581,1.46078
9072,44.3037,16728.3,1.47531
9156,44.7139,16882.5,1.48817
9240,45.124,17029.2,1.50272
9324,45.53418,17182.5,1.51553
9408,45.9443,17320.9,1.52993
9492,46.3545,17477.1,1.54462
9576,46.7646,17602,1.5555
9660,47.1748,17747.1,1.56848
9744,47.585,17908.7,1.58436
9828,47.9951,18054.4,1.5985
9912,48.4053,18203.2,1.61274
9996,48.81543,18339.1,1.62537
10080,49.2256,18503.8,1.63864
10164,49.6357,18649.9,1.65283
10248,50.0459,18791.6,1.66487
10332,50.4561,18911.7,1.67755
10416,50.8662,19071.7,1.69321
10500,51.2764,19221.4,1.70592
10584,51.6865,19375.2,1.72092
10668,52.09668,19499.7,1.73536
10752,52.5068,19651.2,1.74939
10836,52.917,19796.9,1.76152
10920,53.3271,19950.5,1.77714
11004,53.7373,20097.8,1.78911
11088,54.1475,20230.5,1.80106
11172,54.5576,20356.6,1.81594
11256,54.9678,20528.6,1.82853
11340,55.3779,20657.3,1.84466
11424,55.7881,20814,1.85729
11508,56.1982,20948.2,1.87183
11592,56.6084,21107.8,1.88537
11676,57.0186,21232.1,1.89723
11760,57.4287,21387.1,1.91084
11844,57.8389,21531.9,1.92486
11928,58.249,21673.9,1.94012
12012,58.6592,21819,1.95227
12096,59.0693,21957.7,1.96498
12180,59.4795,22117.4,1.98073
12264,59.8896,22235.5,1.994
12348,60.2998,22391.8,2.00857
12432,60.71,22543,2.02246
12516,61.1201,22676.1,2.03473
12600,61.5303,22812.8,2.04965
12684,61.9404,22961.5,2.06236
12768,62.3506,23101.5,2.07632
12852,62.7607,23253.7,2.09166
12936,63.1709,23415.8,2.10598
13020,63.5811,23543.9,2.11807
13104,63.9912,23695,2.13168
13188,64.4014,23831.5,2.14575
13272,64.8115,23963.7,2.16042
13356,65.22168,24098.8,2.17305
13440,65.6318,24229.1,2.18672
13524,66.042,24373.6,2.1999
13608,66.4521,24498.7,2.21109
13692,66.8623,24654.6,2.2262
13776,67.2725,24803.2,2.24038
13860,67.6826,24940,2.25417
13944,68.0928,25076.5,2.26936
14028,68.50293,25216.9,2.28181
14112,68.9131,25348,2.29423
14196,69.3232,25500.2,2.30864
14280,69.7334,25627.2,2.32136
14364,70.1436,25731.6,2.33449
14448,70.5537,25892.6,2.348978
14532,70.9639,26037,2.36277
14616,71.374,26161.8,2.37788
14700,71.78418,26304.1,2.389812
14784,72.1943,26455.1,2.4049
14868,72.6045,26585.8,2.41979
14952,73.0146,26725.1,2.43033
15036,73.4248,26861.9,2.44618
15120,73.835,27002.1,2.45944
15204,74.2451,27129.5,2.471436
15288,74.6553,27270.2,2.48529
15372,75.06543,27410,2.50042
15456,75.4756,27552.2,2.51511
15540,75.8857,27689.7,2.52778
15624,76.2959,27832.8,2.54223
15708,76.7061,27959.8,2.55392
15792,77.1162,28077.4,2.56883
15876,77.5264,28221.2,2.58191
15960,77.9365,28338.7,2.59425
16044,78.34668,28470,2.60785
16128,78.7568,28631.2,2.62432
16212,79.167,28766.6,2.637826
16296,79.5771,28899.6,2.65104
16380,79.9873,29035.7,2.66387
16464,80.3975,29180.1,2.67813
16548,80.8076,29304.8,2.69127
16632,81.2178,29442.7,2.70573
16716,81.62793,29564.4,2.71739
16800,82.0381,29692.5,2.73061
16884,82.4482,29813.3,2.74558
16968,82.8584,29970.2,2.75867
17052,83.2686,30095.4,2.77229
17136,83.6787,30248.8,2.78635
17220,84.0889,30376,2.80151
17304,84.499,30510.7,2.81456
17388,84.90918,30629.9,2.82794
17472,85.3193,30768.8,2.84081
17556,85.7295,30887.3,2.85494
17640,86.1396,31005,2.86846
17724,86.5498,31134.8,2.88191
17808,86.96,31295.9,2.89602
17892,87.3701,31423.6,2.91061
17976,87.7803,31563.7,2.92446
18060,88.19043,31696.2,2.93812
18144,88.6006,31822.6,2.95111
18228,89.0107,31948.8,2.96348
18312,89.4209,32078.7,2.97967
18396,89.8311,32202.3,2.992255
18480,90.2412,32333.3,3.0058
18564,90.6514,32469.5,3.01995
18648,91.0615,32599,3.034245
18732,91.47168,32731.4,3.04717
18816,91.8818,32866.4,3.06166
18900,92.292,32988.8,3.07552
18984,92.7021,33113.2,3.08785
19068,93.1123,33240.3,3.10073
19152,93.5225,33375.3,3.115581
19236,93.9326,33486.6,3.12753
19320,94.3428,33630.9,3.14264
19404,94.75293,33738.1,3.1554
19488,95.1631,33900.8,3.1701
19572,95.5732,34025.7,3.18348
19656,95.9834,34154.6,3.19818
19740,96.3936,34280,3.21179
19824,96.8037,34399.8,3.22462
19908,97.2139,34533.8,3.23903
19992,97.624,34638.5,3.25133
20076,98.03418,34753,3.26353
20160,98.4443,34886,3.27734
20244,98.8545,35035.4,3.2933
20328,99.2646,35169.9,3.30564
20412,99.6748,35294.1,3.31985
20496,100.085,35416.5,3.33477
20580,100.495,35536.3,3.34715
20664,100.905,35656.5,3.36137
20748,101.315,35793.1,3.375108
20832,101.726,35895.6,3.38838
20916,102.136,36018.5,3.4014
21000,102.5459,36158.1,3.41582
21084,102.956,36290.6,3.42994
21168,103.366,36410.3,3.44257
21252,103.776,36529.8,3.45793
21336,104.187,36665.2,3.47131
21420,104.597,36785.9,3.48453
21504,105.007,36913.2,3.49783
21588,105.417,37031.5,3.51209
21672,105.827,37142.1,3.52447
21756,106.2373,37282.2,3.53904
21840,106.647,37412.8,3.55242
21924,107.058,37533.7,3.56682
22008,107.468,37666.6,3.58102
22092,107.878,37783.9,3.594502
22176,108.288,37901.4,3.60805
22260,108.698,38015.7,3.62227
22344,109.1084,38132.8,3.63353
22428,109.519,38243.5,3.64711
22512,109.929,38346.6,3.66221
22596,110.339,38487.2,3.6757
22680,110.749,38611.6,3.68942
22764,111.159,38736.1,3.7036
22848,111.569,38857.7,3.71614
22932,111.979,38973.3,3.73123
23016,112.39,39078,3.743547
23100,112.7998,39203.3,3.75776
23184,113.21,39320,3.77113
23268,113.62,39419.7,3.78362
23352,114.03,39527.5,3.79872
23436,114.44,39664.2,3.81201
23520,114.851,39795.1,3.82542
23604,115.261,39899.4,3.83969
23688,115.6709,40030.7,3.85516
23772,116.081,40126.6,3.86711
23856,116.491,40245.5,3.88163
23940,116.901,40361.6,3.89452
24024,117.312,40462.4,3.90768
24108,117.722,40577.1,3.92106
24192,118.132,40694.5,3.93542
24276,118.542,40806.2,3.948812
24360,118.952,40922,3.96145
24444,119.3623,41030.4,3.97788
24528,119.772,41132.3,3.98896
24612,120.183,41244,4.00391
24696,120.593,41353.1,4.01684
24780,121.003,41446.5,4.02991
24864,121.413,41551.5,4.04458
24948,121.823,41649.7,4.05637
25032,122.2334,41760.4,4.07204
25116,122.644,41875.6,4.08512
25149,122.805,-5765.76,4.664547

File: MTS_quasi_9.csv
,Time [s],Load [N],Displacement [mm]
0,0.0078125,-325.326,0.000979453
80,0.3984375,-140.284,0.0125317
160,0.7890625,-0.130361,0.02432
240,1.17969,160.715,0.036512
320,1.57031,350.392,0.0512382
400,1.96094,496.883,0.0636828
480,2.35156,654.443,0.0759512
560,2.74219,800.277,0.0884646
640,3.13281,972.069,0.101868
720,3.52344,1133.45,0.11485
800,3.91406,1293.3,0.1282306
880,4.30469,1430.02,0.1400739
960,4.69531,1609.58,0.153232
1040,5.08594,1760.79,0.167561
1120,5.47656,1930.5,0.179856
1200,5.86719,2069.88,0.191339
1280,6.25781,2250.38,0.2073893
1360,6.64844,2390.66,0.219455
1440,7.03906,2537.48,0.23128
1520,7.42969,2683.54,0.243869
1600,7.82031,2837.99,0.257657
1680,8.21094,3019.42,0.270552
1760,8.60156,3173.1,0.2843602
1840,8.99219,3332.01,0.297529
1920,9.38281,3484.81,0.309952
2000,9.77344,3651.68,0.3239809
2080,10.1641,3801.64,0.336467
2160,10.5547,3941.61,0.348309
2240,10.9453,4112.29,0.363723
2320,11.3359,4261.21,0.374834
2400,11.7266,4413.7,0.38827
2480,12.1172,4557.43,0.40045
2560,12.5078,4702.34,0.414316
2640,12.8984,4890.99,0.427649
2720,13.2891,5026.76,0.438852
2800,13.6797,5191.82,0.453355
2880,14.0703,5326.13,0.466032
2960,14.4609,5494.73,0.478003
3040,14.8516,5654.64,0.49167
3120,15.2422,5777.9,0.503335
3200,15.6328,5935.53,0.517822
3280,16.0234,6110.66,0.530136
3360,16.4141,6251.28,0.543864
3440,16.8047,6407.34,0.556204
3520,17.1953,6543.9,0.5697186
3600,17.5859,6712.98,0.583331
3680,17.9766,6882.87,0.597584
3760,18.3672,7019.4,0.608635
3840,18.7578,7166.72,0.622586
3920,19.1484,7334.01,0.635187
4000,19.5391,7482.91,0.647898
4080,19.9297,7628.23,0.6622
4160,20.3203,7758.75,0.674053
4240,20.7109,7925.33,0.687684
4320,21.1016,8080.51,0.701132
4400,21.4922,8229.59,0.713491
4480,21.8828,8375.71,0.726632
4560,22.2734,8537.69,0.740823
4640,22.6641,8693.12,0.754152
4720,23.0547,8853.39,0.766292
4800,23.4453,8970.49,0.777423
4880,23.8359,9115.07,0.791751
4960,24.2266,9279.96,0.804593
5040,24.6172,9434.53,0.818729
5120,25.0078,9557.09,0.83075
5200,25.3984,9725.59,0.8437885
5280,25.7891,9895.07,0.859026
5360,26.1797,10040.4,0.870937
5440,26.5703,10183.6,0.883256
5520,26.9609,10328.1,0.89651
5600,27.3516,10486.7,0.909538
5680,27.7422,10632,0.922704
5760,28.1328,10743.3,0.934972
5840,28.5234,10889.1,0.94799
5920,28.9141,11065.3,0.961496
6000,29.3047,11207,0.973734
6080,29.6953,11358.1,0.9878124
6160,30.0859,11488.5,0.999678
6240,30.4766,11653,1.01461
6320,30.8672,11812.6,1.02607
6400,31.2578,11943.9,1.03793
6480,31.6484,12066.3,1.05043
6560,32.0391,12225,1.06498
6640,32.4297,12382.7,1.07754
6720,32.8203,12528,1.09227
6800,33.2109,12648.7,1.10393
6880,33.6016,12785.5,1.11777
6960,33.9922,12966.5,1.13196
7040,34.3828,13110.2,1.14395
7120,34.7734,13245.6,1.15515
7200,35.1641,13386.9,1.17014
7280,35.5547,13546.7,1.18391
7360,35.9453,13687.3,1.195165
7440,36.3359,13804.4,1.20727
7520,36.7266,13969.4,1.22181
7600,37.1172,14099.9,1.23513
7680,37.5078,14258.2,1.2478
7760,37.8984,14392.7,1.25873
7840,38.2891,14537.5,1.27272
7920,38.6797,14689.6,1.28595
8000,39.0703,14844.7,1.30048
8080,39.4609,14964.1,1.31029
8160,39.8516,15105.7,1.32474
8240,40.2422,15265.1,1.33839
8320,40.6328,15407.9,1.35123
8400,41.0234,15535.5,1.36217
8480,41.4141,15670.2,1.37662
8560,41.8047,15829.6,1.39052
8640,42.1953,15972.1,1.40281
8720,42.5859,16111.8,1.41554
8800,42.9766,16265.5,1.42734
8880,43.3672,16416.7,1.44301
8960,43.7578,16557.3,1.45657
9040,44.1484,16692.7,1.46986
9120,44.5391,16816.8,1.48065
9200,44.9297,16964.3,1.49416
9280,45.3203,17114.8,1.50748
9360,45.7109,17234.4,1.52004
9440,46.1016,17386.8,1.53275
9520,46.4922,17526,1.54693
9600,46.8828,17682.9,1.55986
9680,47.2734,17828.5,1.57221
9760,47.6641,17947.1,1.586
9840,48.0547,18100.7,1.598276
9920,48.4453,18262.2,1.61267
10000,48.8359,18397.4,1.6265
10080,49.2266,18502.5,1.6373
10160,49.6172,18648.2,1.65251
10240,50.0078,18813.2,1.66616
10320,50.3984,18952.7,1.67825
10400,50.7891,19080.2,1.690114
10480,51.1797,19225.5,1.70487
10560,51.5703,19376.2,1.71606
10640,51.9609,19519,1.73017
10720,52.3516,19631.7,1.74145
10800,52.7422,19778.8,1.75618
10880,53.1328,19931,1.7695
10960,53.5234,20075.2,1.78187
11040,53.9141,20190.5,1.79319
11120,54.3047,20325.1,1.80805
11200,54.6953,20486.3,1.82117
11280,55.0859,20633.5,1.83465
11360,55.4766,20758.4,1.8468
11440,55.8672,20889.6,1.86036
11520,56.2578,21044.2,1.87346
11600,56.6484,21181.2,1.88652
11680,57.0391,21310.7,1.89767
11760,57.4297,21443.5,1.91092
11840,57.8203,21576.8,1.92338
11920,58.2109,21723.9,1.93907
12000,58.6016,21859.3,1.95142
12080,58.9922,21988.7,1.96215
12160,59.3828,22137.7,1.97683
12240,59.7734,22275.7,1.99061
12320,60.1641,22395,2.00201
12400,60.5547,22540.5,2.01621
12480,60.9453,22666.9,2.02943
12560,61.3359,22821.3,2.04266
12640,61.7266,22948.4,2.05405
12720,62.1172,23067.3,2.06628
12800,62.5078,23207.9,2.08164
12880,62.8984,23372.6,2.09562
12960,63.2891,23516.2,2.10857
13040,63.6797,23625.4,2.12073
13120,64.0703,23748.6,2.13477
13200,64.4609,23914.6,2.14816
13280,64.8516,24040.2,2.15959
13360,65.2422,24147.2,2.17129
13440,65.6328,24272.2,2.18588
13520,66.0234,24418.1,2.1988
13600,66.4141,24569.9,2.21097
13680,66.8047,24697.5,2.22349
13760,67.1953,24821.7,2.23776
13840,67.5859,24968.7,2.25067
13920,67.9766,25096.6,2.26365
14000,68.3672,25238.4,2.2756
14080,68.7578,25357.9,2.28857
14160,69.1484,25486.2,2.30206
14240,69.5391,25641.4,2.31559
14320,69.9297,25752.8,2.32761
14400,70.3203,25865.7,2.34115
14480,70.7109,26005.4,2.35424
14560,71.1016,26170.1,2.36926
14640,71.4922,26288.9,2.38068
14720,71.8828,26414.4,2.39433
14800,72.2734,26555.8,2.40701
14880,72.6641,26690.6,2.41931
14960,73.0547,26820.9,2.432241
15040,73.4453,26926.6,2.444505
15120,73.8359,27073.6,2.45757
15200,74.2266,27213.8,2.47187
15280,74.6172,27340.3,2.48476
15360,75.0078,27465.5,2.49708
15440,75.3984,27600.9,2.50902
15520,75.7891,27731.4,2.52365
15600,76.1797,27861.1,2.53697
15680,76.5703,27981.4,2.5491
15760,76.9609,28109.6,2.56291
15840,77.3516,28254.7,2.57731
15920,77.7422,28373.8,2.58834
16000,78.1328,28503.7,2.60049
16080,78.5234,28620,2.61396
16160,78.9141,28755.5,2.627537
16240,79.3047,28861.5,2.640029
16320,79.6953,29020.6,2.65385
16400,80.0859,29125.3,2.66633
16480,80.4766,29292.8,2.67913
16560,80.8672,29422.8,2.69246
16640,81.2578,29538.1,2.705718
16720,81.6484,29656.6,2.71706
16800,82.0391,29783.3,2.73168
16880,82.4297,29923.5,2.74527
16960,82.8203,30040.7,2.75853
17040,83.2109,30151.8,2.76982
17120,83.6016,30287.5,2.78224
17200,83.9922,30421.4,2.79762
17280,84.3828,30551.1,2.81048
17360,84.7734,30652.9,2.82254
17440,85.1641,30807.9,2.83785
17520,85.5547,30929.9,2.84887
17600,85.9453,31057.1,2.86277
17680,86.3359,31141.5,2.87476
17760,86.7266,31295.4,2.88714
17840,87.1172,31421.8,2.90051
17920,87.5078,31544.7,2.91421
18000,87.8984,31667.5,2.92592
18080,88.2891,31795.2,2.93994
18160,88.6797,31928.8,2.95345
18240,89.0703,32051.4,2.96678
18320,89.4609,32164.2,2.978143
18400,89.8516,32296.8,2.99282
18480,90.2422,32426,3.00577
18560,90.6328,32544.4,3.01827
18640,91.0234,32652.6,3.02966
18720,91.4141,32767,3.04314
18800,91.8047,32917.6,3.057142
18880,92.1953,33040.4,3.07144
18960,92.5859,33160.8,3.08378
19040,92.9766,33288.5,3.09691
19120,93.3672,33414.7,3.10971
19200,93.7578,33544.7,3.12379
19280,94.1484,33663.8,3.13493
19360,94.5391,33773.4,3.14727
19440,94.9297,33888.6,3.16146
19520,95.3203,34023.8,3.17441
19600,95.7109,34126.9,3.18689
19680,96.1016,34246.3,3.1998
19760,96.4922,34385.2,3.21299
19840,96.8828,34505.5,3.22783
19920,97.2734,34630.3,3.23974
20000,97.6641,34741.3,3.25287
20080,98.0547,34868.5,3.2649
20160,98.4453,34988.9,3.27833
20240,98.8359,35112,3.29308
20320,99.2266,35206.8,3.30201
20400,99.6172,35321.9,3.31908
20480,100.008,35457.5,3.330292
20560,100.398,35585.8,3.34355
20640,100.789,35702.8,3.35619
20720,101.18,35816.5,3.36952
20800,101.57,35939.7,3.38368
20880,101.961,36061.4,3.39643
20960,102.352,36170.5,3.40855
21040,102.742,36294.9,3.42089
21120,103.133,36407.7,3.43364
21200,103.523,36526.6,3.44676
21280,103.914,36631.5,3.459594
21360,104.305,36749,3.4743
21440,104.695,36882,3.48686
21520,105.086,36989.5,3.49995
21600,105.477,37104.5,3.51162
21680,105.867,37233,3.525496
21760,106.258,37351,3.53917
21840,106.648,37474.5,3.5505
21920,107.039,37583.6,3.564743
22000,107.43,37688.2,3.5766
22080,107.82,37809.5,3.58995
22160,108.211,37925.3,3.60417
22240,108.602,38037.7,3.61587
22320,108.992,38140,3.62778
22400,109.383,38280.8,3.64324
22480,109.773,38394.8,3.65616
22560,110.164,38496.2,3.66812
22640,110.555,38604.3,3.68221
22720,110.945,38712.2,3.69427
22800,111.336,38825.8,3.7087
22880,111.727,38932.7,3.72112
22960,112.117,38998.3,3.73411
23040,112.508,39133.2,3.74693
23120,112.898,39269.8,3.76008
23200,113.289,39374.4,3.77314
23280,113.68,39491.2,3.78717
23360,114.07,39592.2,3.7993
23440,114.461,39725.4,3.81354
23520,114.852,39825.6,3.82552
23600,115.242,39942.5,3.83964
23680,115.633,40041,3.85088
23760,116.023,40158.6,3.86436
23840,116.414,40264.6,3.87754
23875,116.585,-3362.54,4.02938