Folder: DACS/ASM109_2021_data/MTS/Quasi (part 3)

File: MTS_quasi_6.csv
,Time [s],Load [N],Displacement [mm]
0,0.0078125,-305.857,-7.59959e-05
81,0.40332,-157.698,0.0109743
162,0.798828,32.43,0.0250666
243,1.19434,224.565,0.0371633
324,1.58984,391.627,0.0493079
405,1.98535,546.952,0.0638343
486,2.38086,670.898,0.0767805
567,2.77637,864.171,0.0896099
648,3.171875,1050.41,0.103234
729,3.56738,1211.79,0.117786
810,3.96289,1382.5,0.127889
891,4.3584,1547.64,0.141657
972,4.75391,1720.19,0.15635
1053,5.14941,1895.75,0.168747
1134,5.54492,2070.35,0.182278
1215,5.94043,2229.11,0.195958
1296,6.33594,2380.27,0.208291
1377,6.73145,2538.07,0.223254
1458,7.12695,2725.51,0.235304
1539,7.52246,2876.4,0.246689
1620,7.91797,3033.07,0.259592
1701,8.31348,3186.47,0.274187
1782,8.70898,3367.99,0.288201
1863,9.10449,3539.23,0.299826
1944,9.5,3706.27,0.314903
2025,9.89551,3835.44,0.326319
2106,10.291,3999.55,0.339446
2187,10.6865,4174.6,0.353403
2268,11.082,4337.8,0.365596
2349,11.4775,4500.19,0.378327
2430,11.873,4611.12,0.392751
2511,12.2686,4813.53,0.405741
2592,12.6641,4986.76,0.417738
2673,13.0596,5161.75,0.433115
2754,13.4551,5314.4,0.447025
2835,13.8506,5447.09,0.458734
2916,14.2461,5631.39,0.472761
2997,14.6416,5808.63,0.485502
3078,15.0371,5951.66,0.49881
3159,15.4326,6095.62,0.510859
3240,15.8281,6265.25,0.524797
3321,16.2236,6433.01,0.538934
3402,16.6191,6604.73,0.551466
3483,17.0146,6759.71,0.564724
3564,17.4102,6890.04,0.57589
3645,17.8057,7072.47,0.590897
3726,18.2012,7240.65,0.602856
3807,18.59668,7406.75,0.617492
3888,18.9922,7564.64,0.630849
3969,19.3877,7696.13,0.643219
4050,19.7832,7851.97,0.655157
4131,20.1787,8024.9,0.669978
4212,20.5742,8180.45,0.682417
4293,20.9697,8338.62,0.695721
4374,21.3652,8471.2,0.708214
4455,21.7607,8627.55,0.721569
4536,22.15625,8812.97,0.733678
4617,22.5518,8971.18,0.74882
4698,22.9473,9122.65,0.761796
4779,23.3428,9281.03,0.773968
4860,23.7383,9435.74,0.787442
4941,24.1338,9604.71,0.801848
5022,24.5293,9762.88,0.815856
5103,24.9248,9910.44,0.827546
5184,25.3203,10061.3,0.8398971
5265,25.71582,10217.3,0.853412
5346,26.1113,10388.1,0.868464
5427,26.5068,10533.1,0.879832
5508,26.9023,10650.6,0.892698
5589,27.2979,10830.2,0.906322
5670,27.6934,10993.4,0.919298
5751,28.0889,11148.9,0.933076
5832,28.4844,11310.2,0.945382
5913,28.8799,11435.1,0.958125
5994,29.2754,11597.5,0.972502
6075,29.6709,11766.7,0.985783
6156,30.0664,11925.2,1.00079
6237,30.4619,12061.7,1.01164
6318,30.8574,12203.4,1.02564
6399,31.25293,12393.7,1.03902
6480,31.6484,12556.7,1.05142
6561,32.0439,12714.1,1.0674
6642,32.4395,12859.8,1.07945
6723,32.835,13002.5,1.09102
6804,33.2305,13163,1.10543
6885,33.626,13326.7,1.11913
6966,34.0215,13485.3,1.13241
7047,34.417,13625.6,1.14404
7128,34.8125,13772.7,1.1573
7209,35.208,13920.2,1.17115
7290,35.6035,14070.8,1.18382
7371,35.999,14219.6,1.19771
7452,36.3945,14361.6,1.20848
7533,36.79,14495.9,1.22422
7614,37.1855,14666.7,1.23783
7695,37.5811,14830.1,1.25245
7776,37.9766,14956.5,1.26172
7857,38.37207,15101.9,1.2764
7938,38.7676,15246.2,1.28971
8019,39.1631,15426.8,1.3027
8100,39.5586,15582.5,1.31651
8181,39.9541,15728.4,1.3292
8262,40.3496,15868.1,1.3411
8343,40.7451,16025.9,1.35489
8424,41.1406,16185.3,1.3685
8505,41.5361,16335.1,1.38205
8586,41.9316,16454.1,1.39358
8667,42.3271,16618.8,1.40654
8748,42.7227,16765.9,1.4223
8829,43.1182,16940.6,1.43523
8910,43.5137,17091.1,1.44844
8991,43.90918,17227.7,1.460731
9072,44.3047,17367.2,1.47346
9153,44.7002,17536.4,1.48812
9234,45.0957,17676.4,1.50068
9315,45.4912,17833.4,1.51308
9396,45.8867,17955.5,1.5257
9477,46.2822,18111.1,1.53873
9558,46.6777,18260.1,1.55311
9639,47.0732,18402.9,1.56644
9720,47.46875,18562.7,1.57864
9801,47.8643,18705.1,1.59134
9882,48.2598,18846.6,1.60584
9963,48.6553,19009.3,1.61932
10044,49.0508,19184.2,1.63238
10125,49.4463,19320.4,1.64653
10206,49.8418,19454.2,1.66021
10287,50.2373,19600.5,1.67061
10368,50.6328,19764.3,1.68581
10449,51.02832,19920.2,1.69963
10530,51.4238,20059.2,1.71143
10611,51.8193,20191.7,1.72391
10692,52.2148,20362.6,1.73867
10773,52.6104,20509.5,1.75012
10854,53.0059,20649.6,1.76421
10935,53.4014,20778.8,1.77587
11016,53.7969,20906.1,1.78999
11097,54.1924,21090.5,1.80321
11178,54.5879,21229.8,1.81663
11259,54.9834,21360.7,1.82844
11340,55.3789,21499,1.84114
11421,55.7744,21623.2,1.855579
11502,56.1699,21808.3,1.86843
11583,56.5654,21960.9,1.88175
11664,56.9609,22104.4,1.8951
11745,57.3564,22230.3,1.90827
11826,57.752,22382,1.922341
11907,58.1475,22550.1,1.93482
11988,58.543,22692.6,1.94879
12069,58.9385,22840.7,1.96225
12150,59.334,22964.9,1.97383
12231,59.7295,23127.7,1.98743
12312,60.125,23279.4,2.00131
12393,60.5205,23439.8,2.01558
12474,60.916,23578.8,2.03056
12555,61.3115,23716.4,2.04142
12636,61.707,23878.2,2.057477
12717,62.1025,24023.1,2.07018
12798,62.498,24160.5,2.08198
12879,62.8936,24271.6,2.0929
12960,63.2891,24410.4,2.10613
13041,63.6846,24568.7,2.12133
13122,64.0801,24723.2,2.13502
13203,64.4756,24858.8,2.14733
13284,64.8711,24955.3,2.15929
13365,65.2666,25118.7,2.17299
13446,65.6621,25278.4,2.18784
13527,66.0576,25427.6,2.19929
13608,66.4531,25567.2,2.21131
13689,66.8486,25701.4,2.2253
13770,67.2441,25848.8,2.2384
13851,67.6396,26003.6,2.25403
13932,68.0352,26149.6,2.26647
14013,68.4307,26283.1,2.27905
14094,68.8262,26396.6,2.29229
14175,69.22168,26568.1,2.30445
14256,69.6172,26709.1,2.31878
14337,70.0127,26840,2.33129
14418,70.4082,26976.3,2.34508
14499,70.8037,27112.6,2.3567
14580,71.1992,27250.5,2.37088
14661,71.5947,27406.3,2.38361
14742,71.9902,27552.1,2.39762
14823,72.3857,27695.3,2.409811
14904,72.78125,27810.6,2.42128
14985,73.1768,27951.8,2.43771
15066,73.5723,28113.3,2.44993
15147,73.9678,28240.8,2.46367
15228,74.3633,28379.9,2.47451
15309,74.7588,28515.1,2.48807
15390,75.1543,28659.8,2.50229
15471,75.5498,28810.8,2.51452
15552,75.9453,28943.6,2.52981
15633,76.34082,29071.2,2.5415
15714,76.7363,29206.1,2.555903
15795,77.1318,29362.2,2.56902
15876,77.5273,29498.5,2.58099
15957,77.9229,29628.1,2.59494
16038,78.3184,29760.7,2.60742
16119,78.7139,29920.4,2.622
16200,79.1094,30063.5,2.63646
16281,79.5049,30198.7,2.64836
16362,79.9004,30328.6,2.661304
16443,80.2959,30464.1,2.67363
16524,80.6914,30601.2,2.68713
16605,81.0869,30743.6,2.7014
16686,81.4824,30876,2.71346
16767,81.87793,31009.6,2.72574
16848,82.2734,31113.4,2.73785
16929,82.6689,31267.3,2.75318
17010,83.0645,31421.5,2.7664
17091,83.46,31548.4,2.779
17172,83.8555,31695.1,2.79162
17253,84.251,31817,2.8045
17334,84.6465,31968.1,2.81868
17415,85.042,32108.2,2.83352
17496,85.4375,32246.1,2.84455
17577,85.833,32363.8,2.8576
17658,86.2285,32514.4,2.87172
17739,86.624,32647.9,2.88386
17820,87.0195,32787.3,2.89725
17901,87.415,32926.7,2.91091
17982,87.8105,33067.6,2.9246
18063,88.2061,33203.6,2.93741
18144,88.6016,33331.7,2.94942
18225,88.99707,33463.1,2.96425
18306,89.3926,33612.5,2.97749
18387,89.7881,33740.7,2.98843
18468,90.1836,33850.2,3.00148
18549,90.5791,33984.3,3.01639
18630,90.9746,34120.7,3.02853
18711,91.3701,34257.8,3.04218
18792,91.7656,34373.4,3.05357
18873,92.1611,34514.7,3.067764
18954,92.5566,34660.8,3.08146
19035,92.9521,34814,3.0958
19116,93.3477,34928.6,3.106868
19197,93.7432,35056.7,3.12091
19278,94.1387,35190.1,3.13337
19359,94.53418,35337.4,3.14812
19440,94.9297,35467.2,3.16001
19521,95.3252,35593,3.17404
19602,95.7207,35723.1,3.186502
19683,96.1162,35860,3.20051
19764,96.5117,36006.3,3.21282
19845,96.9072,36133.1,3.22637
19926,97.3027,36251.4,3.23966
20007,97.6982,36370.6,3.25172
20088,98.09375,36511.3,3.26557
20169,98.4893,36649.1,3.28
20250,98.8848,36768.8,3.29242
20331,99.2803,36903.1,3.30557
20412,99.6758,37018.9,3.31656
20493,100.071,37136.7,3.33119
20574,100.4668,37283.5,3.34669
20655,100.8623,37404.4,3.35854
20736,101.258,37531.8,3.3703
20817,101.653,37653.9,3.38364
20898,102.049,37786.8,3.39839
20979,102.444,37933.8,3.41221
21060,102.84,38060.4,3.42377
21141,103.235,38177,3.43802
21222,103.631,38297.7,3.45078
21303,104.026,38425,3.4632
21384,104.422,38557.6,3.47716
21465,104.817,38673.9,3.49099
21546,105.213,38784.6,3.50236
21627,105.6084,38914.7,3.51529
21708,106.004,39043.7,3.52918
21789,106.399,39154.5,3.54327
21870,106.795,39277.3,3.55705
21951,107.19,39378.5,3.56887
22032,107.586,39507.1,3.58239
22113,107.981,39626.5,3.59518
22194,108.377,39755.6,3.60886
22275,108.772,39868.9,3.6224
22356,109.168,39984.8,3.63466
22437,109.563,40095.6,3.6487
22518,109.959,40227.2,3.66238
22599,110.354,40350.3,3.67607
22680,110.75,40452.2,3.68763
22761,111.146,40576.9,3.7017
22842,111.541,40681.1,3.71405
22923,111.937,40825.2,3.72683
23004,112.332,40928.9,3.74153
23085,112.728,41060.6,3.75409
23166,113.123,41171.2,3.7661
23247,113.519,41293,3.78003
23328,113.914,41417.1,3.79395
23409,114.31,41531.7,3.806565
23490,114.705,41643.6,3.81977
23571,115.101,41746.1,3.83212
23652,115.496,41868.5,3.84585
23733,115.8916,41994.6,3.85777
23814,116.287,42112.8,3.87277
23895,116.683,42225.8,3.88454
23976,117.078,42344.7,3.89829
24057,117.474,42453.2,3.91199
24138,117.869,42580.3,3.92619
24206,118.201,6020.1,4.06396

File: MTS_quasi_7.csv
,Time [s],Load [N],Displacement [mm]
0,0.0078125,-526.676,0.002142638
81,0.40332,-335.725,0.0110659
162,0.798828,-199.58,0.0232713
243,1.19434,-21.6953,0.038259
324,1.58984,156.381,0.0531404
405,1.98535,312.566,0.0643873
486,2.38086,430.142,0.0775655
567,2.77637,601.206,0.0899559
648,3.171875,812.307,0.104052
729,3.56738,977.59,0.116213
810,3.96289,1142.3,0.130835
891,4.3584,1269.92,0.140211
972,4.75391,1427.58,0.155281
1053,5.14941,1619.81,0.169459
1134,5.54492,1786.31,0.183107
1215,5.94043,1953.23,0.195601
1296,6.33594,2072.24,0.208255
1377,6.73145,2252.3,0.222856
1458,7.12695,2424,0.237103
1539,7.52246,2602.14,0.24878
1620,7.91797,2764.79,0.261936
1701,8.31348,2904.77,0.272328
1782,8.70898,3074.97,0.288357
1863,9.10449,3267.8,0.303755
1944,9.5,3423.74,0.314834
2025,9.89551,3549.44,0.324275
2106,10.291,3695.07,0.338436
2187,10.6865,3885.32,0.35367
2268,11.082,4060.52,0.36656
2349,11.4775,4224.05,0.381461
2430,11.873,4347.92,0.39256
2511,12.2686,4477.32,0.406824
2592,12.6641,4683.87,0.418998
2673,13.0596,4843.38,0.433246
2754,13.4551,5002.21,0.446653
2835,13.8506,5126.65,0.459392
2916,14.2461,5277.76,0.471146
2997,14.6416,5457.17,0.485163
3078,15.0371,5640.69,0.498581
3159,15.4326,5791.79,0.5120042
3240,15.8281,5934.72,0.524047
3321,16.2236,6087.09,0.536965
3402,16.6191,6260.71,0.552478
3483,17.0146,6423.67,0.565197
3564,17.4102,6583.79,0.578136
3645,17.8057,6741.39,0.589225
3726,18.2012,6892.17,0.605286
3807,18.59668,7066.81,0.61769
3888,18.9922,7215.57,0.63049
3969,19.3877,7358.18,0.643355
4050,19.7832,7464.77,0.6555109
4131,20.1787,7654.87,0.669514
4212,20.5742,7848.18,0.68459
4293,20.9697,7995.93,0.696398
4374,21.3652,8130.77,0.707816
4455,21.7607,8254.45,0.7227
4536,22.15625,8418.69,0.735293
4617,22.5518,8602.67,0.749001
4698,22.9473,8748.91,0.762681
4779,23.3428,8896.99,0.775819
4860,23.7383,9047.27,0.789594
4941,24.1338,9195.87,0.802225
5022,24.5293,9380.79,0.815003
5103,24.9248,9527.08,0.828394
5184,25.3203,9665.68,0.842154
5265,25.71582,9833.49,0.853786
5346,26.1113,10000.6,0.86928
5427,26.5068,10152.7,0.883885
5508,26.9023,10319.1,0.895385
5589,27.2979,10452,0.906638
5670,27.6934,10604.2,0.921877
5751,28.0889,10749.4,0.935652
5832,28.4844,10914.7,0.947193
5913,28.8799,11057.9,0.960537
5994,29.2754,11167,0.973461
6075,29.6709,11341.8,0.986833
6156,30.0664,11513.7,1.00081
6237,30.4619,11660.7,1.01279
6318,30.8574,11802.7,1.0249
6399,31.25293,11914.8,1.03997
6480,31.6484,12094.6,1.0528
6561,32.0439,12270.7,1.06423
6642,32.4395,12412.7,1.0796
6723,32.835,12563.1,1.091976
6804,33.2305,12704.1,1.10505
6885,33.626,12862.2,1.11905
6966,34.0215,13023.1,1.132176
7047,34.417,13169.3,1.14519
7128,34.8125,13290.6,1.15717
7209,35.208,13445.9,1.17057
7290,35.6035,13609.6,1.185117
7371,35.999,13757.7,1.198132
7452,36.3945,13895.5,1.21067
7533,36.79,14041.9,1.22285
7614,37.1855,14197.8,1.23632
7695,37.5811,14352.3,1.25084
7776,37.9766,14495.8,1.26276
7857,38.37207,14631.9,1.27501
7938,38.7676,14738.7,1.288817
8019,39.1631,14910.3,1.30213
8100,39.5586,15075.8,1.31614
8181,39.9541,15236.8,1.32922
8262,40.3496,15370.6,1.34048
8343,40.7451,15489,1.35549
8424,41.1406,15667.1,1.36759
8505,41.5361,15817.4,1.38093
8586,41.9316,15967.1,1.39553
8667,42.3271,16099.3,1.40738
8748,42.7227,16232.9,1.42063
8829,43.1182,16422.4,1.43414
8910,43.5137,16570.8,1.45047
8991,43.90918,16714.9,1.46101
9072,44.3047,16861,1.476
9153,44.7002,17003.7,1.48807
9234,45.0957,17148.4,1.50079
9315,45.4912,17292.4,1.5141
9396,45.8867,17454.4,1.52818
9477,46.2822,17553.2,1.53885
9558,46.6777,17738.3,1.55528
9639,47.0732,17881.9,1.5676
9720,47.46875,18025.5,1.58068
9801,47.8643,18171.3,1.59205
9882,48.2598,18278.2,1.60436
9963,48.6553,18445,1.61907
10044,49.0508,18595.5,1.63365
10125,49.4463,18744.5,1.644516
10206,49.8418,18894.9,1.6586
10287,50.2373,19022.6,1.67268
10368,50.6328,19173.7,1.68525
10449,51.02832,19341.1,1.69884
10530,51.4238,19472.9,1.71061
10611,51.8193,19621.1,1.72585
10692,52.2148,19755,1.73803
10773,52.6104,19912.3,1.7511
10854,53.0059,20059.2,1.76459
10935,53.4014,20196.6,1.77827
11016,53.7969,20304.4,1.78863
11097,54.1924,20473.1,1.80343
11178,54.5879,20625.3,1.81717
11259,54.9834,20790.5,1.83125
11340,55.3789,20885.4,1.84212
11421,55.7744,21024.2,1.85566
11502,56.1699,21190,1.868856
11583,56.5654,21333.3,1.882622
11664,56.9609,21477.7,1.89566
11745,57.3564,21616.8,1.90887
11826,57.752,21746.1,1.92031
11907,58.1475,21869.5,1.93592
11988,58.543,22058.4,1.94988
12069,58.9385,22210.5,1.96168
12150,59.334,22343,1.97466
12231,59.7295,22459.2,1.98735
12312,60.125,22635.3,2.00238
12393,60.5205,22790.8,2.01603
12474,60.916,22917.8,2.02941
12555,61.3115,23054.6,2.04193
12636,61.707,23197.1,2.05404
12717,62.1025,23333.8,2.067199
12798,62.498,23488.5,2.08127
12879,62.8936,23630.6,2.09525
12960,63.2891,23756.4,2.10569
13041,63.6846,23874.7,2.11936
13122,64.0801,24045.2,2.133523
13203,64.4756,24185.2,2.14708
13284,64.8711,24314.6,2.15957
13365,65.2666,24406.4,2.17056
13446,65.6621,24567.5,2.18656
13527,66.0576,24732.8,2.19876
13608,66.4531,24880.6,2.21241
13689,66.8486,25021.9,2.22498
13770,67.2441,25122.5,2.2404
13851,67.6396,25276.7,2.25125
13932,68.0352,25443.3,2.26484
14013,68.4307,25598.7,2.27812
14094,68.8262,25717.5,2.29167
14175,69.22168,25854.2,2.30483
14256,69.6172,25998.2,2.31738
14337,70.0127,26155.8,2.33102
14418,70.4082,26294.2,2.34506
14499,70.8037,26431.9,2.35844
14580,71.1992,26558.5,2.37004
14661,71.5947,26704.2,2.38466
14742,71.9902,26853.3,2.39754
14823,72.3857,26971,2.41066
14904,72.78125,27109.4,2.42071
14985,73.1768,27249,2.43435
15066,73.5723,27397,2.44903
15147,73.9678,27545.6,2.46212
15228,74.3633,27676.4,2.47505
15309,74.7588,27776.3,2.48724
15390,75.1543,27941.6,2.50123
15471,75.5498,28084.1,2.51611
15552,75.9453,28215.3,2.52827
15633,76.34082,28365.8,2.54228
15714,76.7363,28499.6,2.55582
15795,77.1318,28622.8,2.56761
15876,77.5273,28785.5,2.58211
15957,77.9229,28931.2,2.59541
16038,78.3184,29052,2.60925
16119,78.7139,29169.9,2.61998
16200,79.1094,29334,2.63438
16281,79.5049,29474.6,2.64892
16362,79.9004,29598.2,2.66099
16443,80.2959,29740.4,2.67317
16524,80.6914,29855.1,2.68545
16605,81.0869,30009.9,2.69997
16686,81.4824,30156.4,2.713902
16767,81.87793,30296.1,2.72689
16848,82.2734,30397.3,2.73868
16929,82.6689,30547.5,2.75335
17010,83.0645,30707.6,2.765521
17091,83.46,30840.5,2.77828
17172,83.8555,30980.9,2.79209
17253,84.251,31074.1,2.80551
17334,84.6465,31226.7,2.81814
17415,85.042,31380.3,2.83255
17496,85.4375,31527.9,2.84678
17577,85.833,31661.5,2.85998
17658,86.2285,31783.3,2.87228
17739,86.624,31920.4,2.88367
17820,87.0195,32065.9,2.89751
17901,87.415,32202.1,2.91157
17982,87.8105,32325.7,2.92553
18063,88.2061,32463.4,2.93842
18144,88.6016,32595.7,2.95077
18225,88.99707,32743.3,2.96282
18306,89.3926,32873.5,2.97735
18387,89.7881,33000.3,2.98953
18468,90.1836,33127.2,3.00288
18549,90.5791,33277.8,3.01653
18630,90.9746,33403.3,3.0298
18711,91.3701,33533.9,3.04287
18792,91.7656,33651.4,3.05638
18873,92.1611,33764.3,3.06674
18954,92.5566,33923.7,3.08353
19035,92.9521,34063,3.09428
19116,93.3477,34200.5,3.10982
19197,93.7432,34306.3,3.12098
19278,94.1387,34434.7,3.13468
19359,94.53418,34592.5,3.14826
19440,94.9297,34730.4,3.16048
19521,95.3252,34859.3,3.17422
19602,95.7207,34969.2,3.18687
19683,96.1162,35113.9,3.20026
19764,96.5117,35259.1,3.21333
19845,96.9072,35389.5,3.22685
19926,97.3027,35520,3.24143
20007,97.6982,35637.6,3.25213
20088,98.09375,35770.4,3.26655
20169,98.4893,35917.1,3.27925
20250,98.8848,36040.8,3.2946
20331,99.2803,36169.5,3.3062
20412,99.6758,36296.2,3.31858
20493,100.071,36429.3,3.33215
20574,100.4668,36566.2,3.34644
20655,100.8623,36678.1,3.35726
20736,101.258,36803.5,3.37069
20817,101.653,36942.8,3.38462
20898,102.049,37065.2,3.39896
20979,102.444,37204.9,3.41234
21060,102.84,37346.1,3.42448
21141,103.235,37472.1,3.43656
21222,103.631,37608.4,3.45108
21303,104.026,37730.2,3.46533
21384,104.422,37871.3,3.47759
21465,104.817,37997.7,3.4901
21546,105.213,38117,3.5036
21627,105.6084,38238.6,3.516
21708,106.004,38381.4,3.53223
21789,106.399,38513.5,3.54302
21870,106.795,38632.9,3.55676
21951,107.19,38759.4,3.56937
22032,107.586,38888.1,3.5836
22113,107.981,39025.9,3.59703
22194,108.377,39145.1,3.60886
22275,108.772,39247.5,3.62087
22356,109.168,39374.1,3.63452
22437,109.563,39499.9,3.64726
22518,109.959,39623,3.66222
22599,110.354,39753.4,3.67396
22680,110.75,39876.7,3.68777
22761,111.146,39986.8,3.70016
22842,111.541,40126.1,3.71415
22923,111.937,40244.1,3.7269
23004,112.332,40371.5,3.74148
23085,112.728,40485.5,3.75338
23166,113.123,40610.7,3.7692
23247,113.519,40724.5,3.78137
23328,113.914,40852.4,3.7947
23409,114.31,40973.6,3.80656
23490,114.705,41091.9,3.82032
23571,115.101,41201.5,3.83424
23652,115.496,41329.2,3.84704
23733,115.8916,41445.7,3.85965
23814,116.287,41569,3.87291
23895,116.683,41683.7,3.88649
23976,117.078,41809,3.89908
24005,117.22,7115.35,4.0356