Folder: DACS/ASM109_2021_data/MTS/Quasi (part 5)

File: MTS_quasi_10.csv
,Time [s],Load [N],Displacement [mm]
0,0.00683594,-422.644,-8.85129e-05
87,0.431641,-243.208,0.0121839
174,0.856445,-22.8464,0.0270282
261,1.28125,160.203,0.0416744
348,1.70605,317.464,0.0567283
435,2.13086,477.474,0.0692323
522,2.55566,687.883,0.0816554
609,2.98047,858.459,0.0990003
696,3.40527,1022.65,0.109755
783,3.83008,1192.52,0.124193
870,4.25488,1382.64,0.139512
957,4.67969,1546.09,0.153713
1044,5.10449,1725.85,0.167816
1131,5.5293,1876.28,0.181606
1218,5.9541,2084.63,0.195513
1305,6.37891,2256.11,0.211291
1392,6.80371,2416.49,0.225078
1479,7.22852,2578.26,0.237097
1566,7.65332,2754.74,0.251475
1653,8.078125,2931.81,0.266277
1740,8.50293,3109.88,0.281393
1827,8.92773,3244.2,0.294916
1914,9.35254,3462.2,0.308783
2001,9.77734,3635.35,0.323613
2088,10.2021,3785.39,0.336395
2175,10.627,3950.54,0.351114
2262,11.0518,4125.59,0.364828
2349,11.4766,4313.15,0.380454
2436,11.9014,4473.68,0.392807
2523,12.3262,4621.35,0.408029
2610,12.751,4804.05,0.421607
2697,13.1758,4996.74,0.437587
2784,13.6006,5162.05,0.450448
2871,14.0254,5322.67,0.465973
2958,14.4502,5500.92,0.478626
3045,14.875,5678.73,0.492838
3132,15.2998,5833.31,0.508427
3219,15.7246,5982.18,0.52156
3306,16.1494,6142.97,0.533855
3393,16.5742,6353.18,0.551004
3480,16.999,6507.02,0.564215
3567,17.4238,6663.71,0.578349
3654,17.8486,6843.65,0.591856
3741,18.2734,7012.28,0.607717
3828,18.6982,7178.16,0.6208
3915,19.123,7339.02,0.63503
4002,19.5479,7491.61,0.648784
4089,19.9727,7696.04,0.665143
4176,20.3975,7849.95,0.678947
4263,20.8223,7999.15,0.691997
4350,21.24707,8171.1,0.705228
4437,21.6719,8361.37,0.720206
4524,22.09668,8516.92,0.734814
4611,22.5215,8655.95,0.749699
4698,22.9463,8839.02,0.762411
4785,23.3711,9014,0.777132
4872,23.7959,9168.98,0.791462
4959,24.2207,9320.86,0.804894
5046,24.6455,9477.71,0.817976
5133,25.0703,9671.75,0.833381
5220,25.4951,9825.89,0.848977
5307,25.9199,9966.55,0.86064
5394,26.3447,10154.1,0.875117
5481,26.7695,10321.2,0.890539
5568,27.1943,10485.7,0.90401
5655,27.6191,10618.5,0.918606
5742,28.0439,10814.4,0.93187
5829,28.46875,10986.3,0.9484
5916,28.8936,11139.8,0.962011
6003,29.3184,11287.5,0.973701
6090,29.7432,11451.1,0.988788
6177,30.168,11634.8,1.00279
6264,30.5928,11779.3,1.01738
6351,31.0176,11926.6,1.0316
6438,31.4424,12090.2,1.04606
6525,31.8672,12272.8,1.06
6612,32.292,12425.9,1.07418
6699,32.7168,12574.4,1.08854
6786,33.1416,12719.7,1.10315
6873,33.5664,12907.7,1.11607
6960,33.9912,13073.1,1.13204
7047,34.416,13200.6,1.14544
7134,34.84082,13375,1.15943
7221,35.2656,13549.7,1.1735
7308,35.69043,13702.2,1.18779
7395,36.1152,13833.1,1.20259
7482,36.54,14026.2,1.21581
7569,36.9648,14186.3,1.23122
7656,37.3896,14343.9,1.24312
7743,37.8145,14492.7,1.25861
7830,38.2393,14658.8,1.27192
7917,38.6641,14822.1,1.28778
8004,39.0889,14972,1.30095
8091,39.5137,15122.5,1.31467
8178,39.9385,15254.2,1.32921
8265,40.3633,15443.1,1.342742
8352,40.7881,15606.1,1.35703
8439,41.2129,15727,1.37203
8526,41.6377,15917.6,1.38631
8613,42.0625,16078.7,1.39947
8700,42.4873,16205,1.41337
8787,42.9121,16383.9,1.42844
8874,43.3369,16543,1.44181
8961,43.7617,16702.8,1.45757
9048,44.1865,16853.5,1.47115
9135,44.6113,16981.2,1.48433
9222,45.0361,17149.6,1.49936
9309,45.4609,17319.3,1.51331
9396,45.8857,17473,1.5287
9483,46.3105,17610.6,1.54275
9570,46.7354,17752.8,1.55496
9657,47.1602,17929.2,1.569301
9744,47.585,18096.5,1.58467
9831,48.0098,18233.5,1.59885
9918,48.43457,18395.5,1.61236
10005,48.8594,18564.6,1.62641
10092,49.28418,18706.9,1.64019
10179,49.709,18828.6,1.65442
10266,50.1338,18980,1.66763
10353,50.5586,19169.9,1.68345
10440,50.9834,19322.3,1.69674
10527,51.4082,19461.9,1.71191
10614,51.833,19612.7,1.72538
10701,52.2578,19775.4,1.73848
10788,52.6826,19933.4,1.753896
10875,53.1074,20076.8,1.76722
10962,53.5322,20232.9,1.78113
11049,53.957,20406,1.79719
11136,54.3818,20547.5,1.81117
11223,54.8066,20672,1.82529
11310,55.2314,20812.5,1.83774
11397,55.65625,21005.2,1.85257
11484,56.0811,21143.4,1.86673
11571,56.5059,21298.2,1.882634
11658,56.9307,21422.7,1.89513
11745,57.3555,21607.4,1.9093
11832,57.7803,21749.3,1.92448
11919,58.2051,21892.7,1.93857
12006,58.6299,22031.3,1.95213
12093,59.0547,22209.5,1.96682
12180,59.4795,22353,1.98121
12267,59.9043,22500.3,1.99462
12354,60.3291,22635.8,2.00891
12441,60.7539,22819,2.02493
12528,61.1787,22970.7,2.03919
12615,61.6035,23101.4,2.05136
12702,62.0283,23244.4,2.06532
12789,62.4531,23403.7,2.0796
12876,62.8779,23553.8,2.09563
12963,63.3027,23677.4,2.108882
13050,63.7275,23838.4,2.12251
13137,64.1523,23995,2.13692
13224,64.5771,24134.3,2.15018
13311,65.002,24246.1,2.16566
13398,65.4268,24402,2.17866
13485,65.8516,24572.3,2.19372
13572,66.2764,24693.8,2.208111
13659,66.7012,24840.5,2.22229
13746,67.126,24998.2,2.23578
13833,67.5508,25155.1,2.24865
13920,67.9756,25308,2.26426
14007,68.4004,25434.6,2.278435
14094,68.8252,25585,2.29171
14181,69.25,25738.4,2.3073
14268,69.6748,25869.7,2.31915
14355,70.0996,26012.6,2.33453
14442,70.5244,26159,2.346405
14529,70.9492,26316.8,2.36328
14616,71.374,26460.6,2.37592
14703,71.7988,26591.1,2.39116
14790,72.2236,26733.7,2.40528
14877,72.6484,26887.7,2.419421
14964,73.0732,27026.7,2.43299
15051,73.498,27164,2.446758
15138,73.9229,27300,2.4626
15225,74.3477,27471.5,2.47721
15312,74.7725,27609.3,2.49
15399,75.1973,27756.2,2.50427
15486,75.62207,27881.1,2.51756
15573,76.0469,28032.3,2.5348
15660,76.47168,28148.1,2.54764
15747,76.8965,28311.6,2.56086
15834,77.3213,28439.7,2.57402
15921,77.7461,28594.9,2.58895
16008,78.1709,28745.8,2.6048
16095,78.5957,28883.1,2.61913
16182,79.0205,29024.7,2.631623
16269,79.4453,29166.8,2.64613
16356,79.8701,29316.1,2.66139
16443,80.2949,29436,2.67395
16530,80.7197,29564.5,2.6882
16617,81.1445,29739.3,2.70345
16704,81.5693,29863.8,2.7193
16791,81.9941,30001.5,2.73057
16878,82.4189,30143.4,2.74346
16965,82.84375,30267.7,2.75875
17052,83.2686,30428.2,2.77493
17139,83.6934,30556.9,2.78788
17226,84.1182,30684.4,2.80165
17313,84.543,30841.2,2.81629
17400,84.9678,30972,2.831907
17487,85.3926,31119.9,2.84388
17574,85.8174,31239,2.8571
17661,86.2422,31387.4,2.87453
17748,86.667,31522.6,2.88797
17835,87.0918,31655.6,2.90083
17922,87.5166,31791,2.91567
18009,87.9414,31931.5,2.9301
18096,88.3662,32072.6,2.94368
18183,88.791,32207.2,2.95679
18270,89.21582,32336.2,2.97071
18357,89.6406,32480,2.986
18444,90.06543,32612.5,3.0009
18531,90.4902,32746.2,3.01537
18618,90.915,32864.4,3.02762
18705,91.3398,33022,3.04231
18792,91.7646,33156.7,3.05731
18879,92.1895,33285.6,3.07091
18966,92.6143,33420.7,3.08467
19053,93.0391,33560.8,3.09876
19140,93.4639,33699.4,3.11482
19227,93.8887,33830.7,3.12727
19314,94.3135,33941.4,3.1411
19401,94.7383,34103.1,3.15638
19488,95.1631,34236.9,3.170959
19575,95.5879,34369.8,3.18515
19662,96.0127,34491.9,3.1986
19749,96.4375,34627.8,3.21379
19836,96.8623,34752.6,3.2262
19923,97.2871,34883.3,3.2409
20010,97.7119,35016.1,3.25497
20097,98.1367,35150.5,3.26935
20184,98.5615,35289,3.28333
20271,98.9863,35406.9,3.29777
20358,99.4111,35541.6,3.31277
20445,99.8359,35670.2,3.32488
20532,100.261,35803.2,3.33956
20619,100.686,35924.8,3.35258
20706,101.11,36054.4,3.36953
20793,101.535,36189.9,3.38221
20880,101.96,36311.6,3.39634
20967,102.385,36438.7,3.4115
21054,102.81,36564.5,3.42473
21141,103.234,36697.4,3.4391
21228,103.659,36826.3,3.4542
21315,104.084,36952.8,3.468364
21402,104.509,37082.1,3.48104
21489,104.934,37179.5,3.49511
21576,105.3584,37328.1,3.510818
21663,105.7832,37441,3.52367
21750,106.208,37578.7,3.53963
21837,106.633,37700.2,3.55251
21924,107.058,37827.3,3.56755
22011,107.482,37952.5,3.58021
22098,107.907,38067.9,3.59495
22185,108.332,38179.9,3.60831
22272,108.757,38303.4,3.62297
22359,109.182,38431.1,3.63659
22446,109.606,38534,3.65007
22533,110.031,38658.4,3.6666
22620,110.456,38768.7,3.67952
22707,110.881,38884.8,3.69356
22794,111.306,39003,3.70762
22881,111.73,39128.8,3.72231
22968,112.155,39240.5,3.73786
23055,112.58,39356.8,3.75129
23142,113.005,39474.4,3.76521
23229,113.43,39582.7,3.78042
23316,113.854,39695.3,3.79495
23403,114.2793,39815.3,3.80796
23490,114.7041,39934.7,3.82143
23577,115.129,40047,3.83619
23664,115.554,40160.1,3.84984
23751,115.979,40274.4,3.86474
23838,116.403,40384.6,3.8774
23925,116.828,40493.8,3.89214
24012,117.253,40603.3,3.90617
24099,117.678,40716.7,3.92003
24186,118.103,40833.1,3.93474
24273,118.527,40946.4,3.948889
24360,118.952,41053.3,3.96282
24447,119.377,41154.9,3.97639
24534,119.802,41267,3.99137
24621,120.227,41381.5,4.00494
24708,120.651,41488.6,4.0194
24795,121.076,41594.3,4.03397
24882,121.501,41692.9,4.0463
24969,121.926,41794.7,4.06219
25056,122.351,41912.8,4.07548
25143,122.775,42017.7,4.09038
25230,123.2002,42112.6,4.10448
25317,123.625,42204.9,4.11859
25404,124.0498,42317.3,4.13366
25491,124.475,42420.3,4.14724
25578,124.899,42520.6,4.16113
25665,125.324,42612.6,4.175168
25752,125.749,42716,4.19038
25839,126.174,42809.6,4.204236
25926,126.599,42858.1,4.21804
25995,126.936,7234.58,4.42814