Folder: DACS/ASM109_2021_data/MTS/UD (part 5)

File: MTS_UD_11.csv
,Time [s],Load [N],Displacement [mm]
0,0.0078125,-236.373,0.0002919574
61,0.305664,-196.601,0.0107294
122,0.603516,-101.943,0.0197684
183,0.901367,-12.4696,0.02925
244,1.19922,87.6339,0.0381965
305,1.49707,183.529,0.0477063
366,1.79492,287.893,0.056603
427,2.09277,402.981,0.0682508
488,2.390625,507.978,0.0788882
549,2.68848,599.398,0.0901967
610,2.98633,702.493,0.0972583
671,3.28418,798.025,0.106679
732,3.58203,901.278,0.118999
793,3.87988,1015.3,0.128476
854,4.17773,1117,0.138078
915,4.47559,1214.46,0.147383
976,4.77344,1304.67,0.156843
1037,5.07129,1420.09,0.166901
1098,5.36914,1533.81,0.176464
1159,5.66699,1632.06,0.187101
1220,5.96484,1715.89,0.196732
1281,6.2627,1832.33,0.207027
1342,6.56055,1938.14,0.217079
1403,6.8584,2053.16,0.226695
1464,7.15625,2152.82,0.238768
1525,7.4541,2253,0.249154
1586,7.75195,2355.6,0.256904
1647,8.0498,2462.75,0.266584
1708,8.34766,2558.1,0.277945
1769,8.64551,2661.16,0.287014
1830,8.94336,2767.37,0.296255
1891,9.24121,2859.23,0.30556
1952,9.53906,2960.71,0.317083
2013,9.83691,3068.09,0.327231
2074,10.1348,3172.92,0.336361
2135,10.4326,3267.82,0.345758
2196,10.7305,3368.98,0.356867
2257,11.0283,3468.51,0.366255
2318,11.3262,3572.73,0.375409
2379,11.624,3679.49,0.38751
2440,11.9219,3767.05,0.396293
2501,12.2197,3858.83,0.405854
2562,12.5176,3987.63,0.416278
2623,12.8154,4073.72,0.425931
2684,13.1133,4170.07,0.435673
2745,13.4111,4283.07,0.446908
2806,13.709,4378.88,0.45498
2867,14.0068,4455.37,0.463267
2928,14.3047,4567.92,0.473306
2989,14.6025,4670.18,0.485511
3050,14.9004,4786.96,0.49423
3111,15.1982,4869.03,0.502797
3172,15.4961,4969.71,0.51539
3233,15.7939,5063.43,0.522812
3294,16.0918,5181.76,0.534307
3355,16.3896,5255.21,0.54281
3416,16.6875,5368.59,0.5553
3477,16.9854,5471.02,0.5636366
3538,17.2832,5549.17,0.572044
3599,17.5811,5682.01,0.5829199
3660,17.8789,5762.74,0.593255
3721,18.1768,5872.96,0.604854
3782,18.4746,5955.33,0.61402
3843,18.7725,6082.23,0.62315
3904,19.0703,6168.07,0.633657
3965,19.3682,6258.47,0.644229
4026,19.666,6384.94,0.652678
4087,19.9639,6490.28,0.663977
4148,20.2617,6577.76,0.674056
4209,20.55957,6677.66,0.684212
4270,20.8574,6783.79,0.694004
4331,21.1553,6881.47,0.702463
4392,21.4531,6968.64,0.714512
4453,21.751,7082.27,0.724126
4514,22.0488,7171.72,0.732289
4575,22.34668,7279.62,0.7427339
4636,22.6445,7374.88,0.753876
4697,22.9424,7473.04,0.764422
4758,23.2402,7582.37,0.773744
4819,23.5381,7684.67,0.783393
4880,23.8359,7774.56,0.7929759
4941,24.1338,7877.99,0.802865
5002,24.4316,7964.35,0.813316
5063,24.7295,8073.87,0.822141
5124,25.0273,8158.86,0.832389
5185,25.3252,8276.58,0.843361
5246,25.623,8374.89,0.852402
5307,25.9209,8483.44,0.86323
5368,26.21875,8569.2,0.872944
5429,26.5166,8673.02,0.882339
5490,26.8145,8765.42,0.892036
5551,27.1123,8860.34,0.902401
5612,27.4102,8957.14,0.91078
5673,27.708,9055.84,0.920892
5734,28.0059,9159.73,0.930404
5795,28.3037,9257.5,0.940715
5856,28.6016,9348.21,0.952933
5917,28.8994,9436.1,0.961703
5978,29.1973,9565.26,0.972199
6039,29.4951,9655.44,0.981034
6100,29.793,9754.97,0.99248
6161,30.09082,9858.15,1.0016
6222,30.3887,9955.58,1.01181
6283,30.6865,10044.3,1.02084
6344,30.9844,10144.1,1.03082
6405,31.2822,10244.7,1.04099
6466,31.5801,10342.4,1.05121
6527,31.87793,10435.7,1.06039
6588,32.1758,10559,1.07158
6649,32.4736,10644.8,1.08004
6710,32.7715,10741.5,1.08997
6771,33.0693,10843,1.10071
6832,33.3672,10950.8,1.11033
6893,33.665,11033.1,1.11998
6954,33.9629,11136.3,1.13039
7015,34.2607,11238,1.14069
7076,34.5586,11322.8,1.15112
7137,34.8564,11431.8,1.15936
7198,35.1543,11540.9,1.1712
7259,35.4521,11633.8,1.18118
7320,35.75,11741.2,1.18999
7381,36.0479,11830.1,1.20037
7442,36.3457,11933.3,1.211349
7503,36.6436,12037.5,1.22122
7564,36.9414,12138.5,1.23251
7625,37.2393,12241,1.24196
7686,37.5371,12334.6,1.2508
7747,37.835,12426.9,1.26153
7808,38.1328,12525,1.26998
7869,38.4307,12620.1,1.28113
7930,38.7285,12716,1.29011
7991,39.0264,12807.2,1.29993
8052,39.3242,12907.6,1.31063
8113,39.62207,13012.2,1.32002
8174,39.9199,13115.8,1.330085
8235,40.2178,13219.1,1.33856
8296,40.5156,13289.7,1.34766
8357,40.8135,13397.4,1.35895
8418,41.1113,13507.8,1.36916
8479,41.40918,13596.1,1.37792
8540,41.707,13694.1,1.38859
8601,42.0049,13792,1.39821
8662,42.3027,13892.5,1.40848
8723,42.6006,13970.9,1.4167
8784,42.8984,14071,1.42662
8845,43.1963,14179.2,1.43884
8906,43.4941,14283.8,1.44851
8967,43.792,14380.6,1.45773
9028,44.0898,14460,1.46828
9089,44.3877,14560.4,1.47749
9150,44.6855,14642.1,1.48628
9211,44.9834,14752.7,1.49703
9272,45.28125,14862.7,1.50815
9333,45.5791,14957.1,1.51771
9394,45.877,15051.9,1.52814
9455,46.1748,15162.5,1.53829
9516,46.4727,15248.6,1.54672
9577,46.7705,15348.5,1.55759
9638,47.0684,15458.4,1.56847
9699,47.3662,15548.8,1.57784
9760,47.6641,15647.3,1.58791
9821,47.9619,15746.3,1.59746
9882,48.2598,15836.5,1.60762
9943,48.5576,15938.6,1.615993
10004,48.8555,16029,1.62644
10065,49.15332,16128.2,1.63763
10126,49.4512,16240.9,1.64642
10187,49.749,16332.2,1.6568
10248,50.0469,16402.7,1.66552
10309,50.3447,16516.7,1.67587
10370,50.6426,16620.8,1.68638
10431,50.94043,16700.9,1.69617
10492,51.2383,16814.4,1.70753
10553,51.5361,16909.3,1.71641
10614,51.834,17006.9,1.72516
10675,52.1318,17107.6,1.73572
10736,52.4297,17197,1.74668
10797,52.7275,17298.2,1.75588
10858,53.0254,17400.8,1.76668
10919,53.3232,17495.6,1.77506
10980,53.6211,17583.3,1.7852
11041,53.9189,17678.5,1.79515
11102,54.2168,17782.9,1.80527
11163,54.5146,17875.9,1.81486
11224,54.8125,17971.6,1.82432
11285,55.1104,18064.5,1.83519
11346,55.4082,18171.6,1.84533
11407,55.7061,18254.3,1.85541
11468,56.0039,18355.8,1.86433
11529,56.3018,18456.6,1.87536
11590,56.5996,18539.7,1.88366
11651,56.8975,18660.1,1.89463
11712,57.1953,18745.2,1.90328
11773,57.4932,18831.1,1.91378
11834,57.791,18932.4,1.92368
11895,58.0889,19032.8,1.93407
11956,58.3867,19121.8,1.94346
12017,58.6846,19217.9,1.95406
12078,58.9824,19316.9,1.96414
12139,59.2803,19424.3,1.9749
12200,59.5781,19521.8,1.98443
12261,59.876,19613.1,1.9944
12322,60.1738,19708,2.00449
12383,60.4717,19809.5,2.01429
12444,60.7695,19917.8,2.02438
12505,61.0674,19986.3,2.03388
12566,61.3652,20095.4,2.04277
12627,61.6631,20188.5,2.05259
12688,61.9609,20298.8,2.0636
12749,62.2588,20376.4,2.07443
12810,62.5566,20479.1,2.08152
12871,62.8545,20578.7,2.09324
12932,63.1523,20684,2.10313
12993,63.4502,20767.2,2.11606
13054,63.748,20875.8,2.12302
13115,64.0459,20966.5,2.13258
13176,64.34375,21055.4,2.14211
13237,64.6416,21158.3,2.1529
13298,64.9395,21254.7,2.16321
13359,65.2373,21348,2.17206
13420,65.5352,21435.3,2.1832
13481,65.833,21531.2,2.19326
13542,66.1309,21628.2,2.20209
13603,66.4287,21729.7,2.21279
13664,66.7266,21815.8,2.2238
13725,67.0244,21906.5,2.23293
13786,67.3223,22010.5,2.24257
13847,67.6201,22107.9,2.252774
13908,67.918,22201.8,2.26333
13969,68.21582,22289.9,2.27152
14030,68.5137,22403.6,2.2831
14091,68.8115,22477.9,2.29173
14152,69.1094,22570.1,2.30161
14213,69.4072,22661.7,2.31266
14274,69.7051,22764,2.32094
14335,70.00293,22852.3,2.32979
14396,70.3008,22950.2,2.341877
14457,70.5986,23037.7,2.35105
14518,70.8965,23142.4,2.36213
14579,71.1943,23226,2.37244
14640,71.4922,23316.2,2.380594
14701,71.79,23392.2,2.38946
14762,72.0879,23516.3,2.40064
14823,72.3857,23602.4,2.409802
14884,72.6836,23688,2.42052
14945,72.9814,23802.4,2.43143
15006,73.2793,23880.4,2.439486
15067,73.5771,23980.5,2.4507
15128,73.875,24058.6,2.46022
15189,74.1729,24169,2.47061
15250,74.4707,24269.8,2.47958
15311,74.7686,24367.5,2.48967
15372,75.0664,24449.7,2.50029
15433,75.3643,24544.3,2.50907
15494,75.6621,24644.9,2.5197
15555,75.96,24742.4,2.52995
15616,76.2578,24831.4,2.539804
15677,76.5557,24944.1,2.55092
15738,76.8535,25039,2.56154
15799,77.1514,25138.1,2.57054
15860,77.4492,25231.1,2.58147
15921,77.74707,25328.9,2.59147
15982,78.0449,25417.5,2.60068
16043,78.3428,25493.4,2.60978
16104,78.6406,25589.3,2.61943
16165,78.9385,25670.1,2.6309
16226,79.2363,25779.1,2.64026
16287,79.53418,25859.3,2.64896
16348,79.832,25962.7,2.65899
16409,80.1299,26051.9,2.66986
16470,80.4277,26149.3,2.67946
16531,80.7256,26241.5,2.68802
16592,81.0234,26334.6,2.6986
16653,81.3213,26423,2.70713
16714,81.6191,26506.3,2.71909
16775,81.917,26605.5,2.7276
16836,82.2148,26712.1,2.73835
16897,82.5127,26799.2,2.74859
16958,82.8105,26890.3,2.75753
17019,83.1084,26988.5,2.76857
17080,83.40625,27080.8,2.77803
17141,83.7041,27168,2.7865
17202,84.002,27263.3,2.79717
17263,84.2998,27360.8,2.80984
17324,84.5977,27449,2.81746
17385,84.8955,27547.8,2.82757
17446,85.1934,27631.2,2.83571
17507,85.4912,27747.9,2.84724
17568,85.7891,27822.2,2.85689
17629,86.0869,27919.6,2.86594
17690,86.3848,28017.5,2.87731
17751,86.6826,28104.7,2.8865
17812,86.9805,28184,2.89588
17873,87.27832,28278.9,2.90797
17934,87.5762,28381.7,2.91687
17995,87.874,28476.6,2.92615
18056,88.1719,28559.7,2.93809
18117,88.4697,28658.9,2.94749
18178,88.7676,28749.7,2.95693
18239,89.06543,28838.7,2.96611
18294,89.334,7632.58,3.08041

File: MTS_UD_12.csv
,Time [s],Load [N],Displacement [mm]
0,0.0078125,-242.486,-0.000259854
66,0.330078,-190.136,0.0105759
132,0.652344,-84.0585,0.0218863
198,0.974609,10.0437,0.0327114
264,1.296875,129.233,0.0415664
330,1.61914,250.677,0.0550134
396,1.94141,367.939,0.0638697
462,2.26367,475.049,0.0729939
528,2.58594,581.52,0.083752
594,2.9082,704.026,0.0953441
660,3.23047,817.649,0.1072721
726,3.55273,930.905,0.117742
792,3.875,1037.5,0.127614
858,4.19727,1149.45,0.137547
924,4.51953,1269.62,0.149375
990,4.8418,1391.66,0.159777
1056,5.16406,1486.63,0.170365
1122,5.48633,1595.11,0.181611
1188,5.80859,1716.69,0.190941
1254,6.13086,1841.23,0.202408
1320,6.453125,1949.44,0.212814
1386,6.77539,2050.7,0.223487
1452,7.09766,2184.3,0.233693
1518,7.41992,2292.51,0.244701
1584,7.74219,2406.55,0.255656
1650,8.06445,2515.92,0.26653
1716,8.38672,2631.24,0.27565
1782,8.70898,2764.48,0.2895295
1848,9.03125,2860.05,0.299922
1914,9.35352,2981.68,0.311243
1980,9.67578,3077.61,0.319452
2046,9.99805,3203.87,0.331585
2112,10.3203,3305.47,0.342522
2178,10.6426,3428.37,0.352781
2244,10.9648,3527.58,0.363361
2310,11.2871,3655.68,0.375449
2376,11.6094,3768.15,0.384249
2442,11.9316,3881.47,0.396659
2508,12.2539,3973.96,0.407084
2574,12.5762,4095.46,0.418392
2640,12.8984,4198.79,0.428421
2706,13.2207,4321.99,0.439148
2772,13.543,4414.02,0.448395
2838,13.8652,4539.7,0.460703
2904,14.1875,4645.89,0.470027
2970,14.5098,4765.42,0.48176
3036,14.832,4870.96,0.493511
3102,15.1543,4989.14,0.503369
3168,15.4766,5091.44,0.513091
3234,15.7988,5217.49,0.524902
3300,16.1211,5318.6,0.535461
3366,16.4434,5444,0.545798
3432,16.7656,5537.17,0.556121
3498,17.0879,5655.73,0.5672726
3564,17.4102,5770.73,0.579549
3630,17.7324,5886.79,0.590123
3696,18.0547,6000.53,0.602161
3762,18.377,6108.27,0.61108
3828,18.6992,6212.95,0.620637
3894,19.0215,6328.89,0.631101
3960,19.34375,6440.57,0.643899
4026,19.666,6549.57,0.654194
4092,19.9883,6656.89,0.665126
4158,20.3105,6765.38,0.675634
4224,20.6328,6859.53,0.684877
4290,20.9551,6989.48,0.696138
4356,21.2773,7059.1,0.70684
4422,21.5996,7195.45,0.719026
4488,21.9219,7301.54,0.729408
4554,22.2441,7415.05,0.739016
4620,22.5664,7524.51,0.750604
4686,22.8887,7630.9,0.760333
4752,23.2109,7740.04,0.771447
4818,23.5332,7867.34,0.782795
4884,23.8555,7966.29,0.792302
4950,24.1777,8073.33,0.803428
5016,24.5,8188.18,0.814987
5082,24.8223,8298.3,0.825503
5148,25.1445,8402.89,0.8369742
5214,25.4668,8520.25,0.848364
5280,25.7891,8613.94,0.857623
5346,26.1113,8739.65,0.868738
5412,26.4336,8849.63,0.879602
5478,26.7559,8951.74,0.890675
5544,27.0781,9049.1,0.90077
5610,27.4004,9176.5,0.91148
5676,27.7227,9274.72,0.922194
5742,28.0449,9394.88,0.933036
5808,28.3672,9463.64,0.943238
5874,28.6895,9601.23,0.95246
5940,29.0117,9712.06,0.965146
6006,29.334,9825.76,0.976885
6072,29.65625,9918.78,0.986008
6138,29.9785,10037.7,0.998496
6204,30.3008,10145.4,1.00921
6270,30.623,10269.9,1.01901
6336,30.9453,10366.3,1.02995
6402,31.2676,10469.7,1.03918
6468,31.5898,10558.2,1.04918
6534,31.9121,10694.8,1.06199
6600,32.2344,10804.9,1.07317
6666,32.5566,10901.8,1.08253
6732,32.8789,11016.6,1.09279
6798,33.2012,11129.1,1.10309
6864,33.5234,11235.6,1.116053
6930,33.8457,11348.4,1.12591
6996,34.168,11447.4,1.13739
7062,34.4902,11563.6,1.14626
7128,34.8125,11671.4,1.15812
7194,35.1348,11781.3,1.16807
7260,35.457,11884.3,1.18014
7326,35.7793,11995.7,1.19007
7392,36.1016,12104.3,1.20066
7458,36.4238,12209.1,1.211826
7524,36.7461,12308.6,1.22242
7590,37.0684,12423.9,1.23382
7656,37.3906,12536.4,1.24339
7722,37.7129,12648.1,1.25564
7788,38.0352,12737,1.26485
7854,38.3574,12855.1,1.27629
7920,38.6797,12948,1.28775
7986,39.002,13064.7,1.29736
8052,39.3242,13165,1.3087
8118,39.6465,13274.8,1.31949
8184,39.96875,13369.1,1.32978
8250,40.291,13506.9,1.34102
8316,40.6133,13601.3,1.35054
8382,40.9355,13721.1,1.36274
8448,41.2578,13822.3,1.37245
8514,41.5801,13926,1.38291
8580,41.9023,14031.6,1.39506
8646,42.2246,14147.3,1.4037
8712,42.5469,14252.4,1.41761
8778,42.8691,14359.2,1.42738
8844,43.1914,14465.9,1.43677
8910,43.5137,14575.2,1.44976
8976,43.8359,14692.7,1.45892
9042,44.1582,14778.4,1.47173
9108,44.4805,14886.8,1.48157
9174,44.8027,15009.4,1.49047
9240,45.125,15112.9,1.50096
9306,45.4473,15221.6,1.51347
9372,45.7695,15315.8,1.52286
9438,46.0918,15434.2,1.53417
9504,46.4141,15538.6,1.545221
9570,46.7363,15657.3,1.55655
9636,47.0586,15748.5,1.56756
9702,47.3809,15862.6,1.57726
9768,47.7031,15968.6,1.5889
9834,48.0254,16080,1.59936
9900,48.3477,16188.2,1.60861
9966,48.6699,16269.7,1.6202
10032,48.9922,16383.8,1.63063
10098,49.3145,16503.2,1.64246
10164,49.6367,16606.5,1.65212
10230,49.959,16706.5,1.66383
10296,50.28125,16813.8,1.67426
10362,50.6035,16923.5,1.68576
10428,50.9258,17035.3,1.69716
10494,51.248,17131,1.70568
10560,51.5703,17236,1.71737
10626,51.8926,17353.7,1.72628
10692,52.2148,17441.8,1.73715
10758,52.5371,17559.7,1.75042
10824,52.8594,17666.8,1.75965
10890,53.1816,17769.8,1.77016
10956,53.5039,17883,1.78167
11022,53.8262,17980.4,1.79308
11088,54.1484,18096.9,1.80353
11154,54.4707,18180.1,1.81287
11220,54.793,18283.2,1.82612
11286,55.1152,18398.6,1.83578
11352,55.4375,18505,1.84447
11418,55.7598,18615.9,1.85631
11484,56.082,18695.5,1.86691
11550,56.4043,18831.8,1.87896
11616,56.7266,18935.2,1.88926
11682,57.0488,19034.4,1.89978
11748,57.3711,19143.9,1.91094
11814,57.6934,19243.6,1.92059
11880,58.0156,19352.8,1.93273
11946,58.3379,19456.2,1.94301
12012,58.6602,19566.9,1.9531
12078,58.9824,19673.2,1.964
12144,59.3047,19779.5,1.9746
12210,59.627,19885.3,1.98615
12276,59.9492,19977.1,1.99605
12342,60.2715,20087.6,2.00689
12408,60.59375,20190.2,2.01782
12474,60.916,20294.4,2.02826
12540,61.2383,20398.1,2.03984
12606,61.5605,20511.2,2.0501
12672,61.8828,20600.5,2.06003
12738,62.2051,20729.6,2.0724
12804,62.5273,20835.8,2.08241
12870,62.8496,20924.9,2.0924
12936,63.1719,21023.7,2.10333
13002,63.4941,21125.6,2.11379
13068,63.8164,21232.6,2.124737
13134,64.1387,21329.4,2.13525
13200,64.4609,21421.5,2.1476
13266,64.7832,21540.5,2.15695
13332,65.1055,21655,2.16971
13398,65.4277,21755.4,2.17983
13464,65.75,21846.2,2.18904
13530,66.0723,21947,2.19941
13596,66.3945,22045.2,2.21041
13662,66.7168,22161.1,2.22251
13728,67.0391,22250.8,2.2311
13794,67.3613,22365.6,2.24306
13860,67.6836,22460.7,2.25396
13926,68.0059,22566.8,2.26367
13992,68.3281,22684,2.27581
14058,68.6504,22769.1,2.28619
14124,68.9727,22869.1,2.29684
14190,69.2949,22986,2.30676
14256,69.6172,23076.8,2.318598
14322,69.9395,23194.8,2.329
14388,70.2617,23276.6,2.340277
14454,70.584,23386.2,2.35041
14520,70.90625,23499,2.36389
14586,71.2285,23607,2.37336
14652,71.5508,23700.3,2.38275
14718,71.873,23784.4,2.39398
14784,72.1953,23905.4,2.40488
14850,72.5176,24015.5,2.41569
14916,72.8398,24119.6,2.4273
14982,73.1621,24217.9,2.43731
15048,73.4844,24310.3,2.44707
15114,73.8066,24413.3,2.45813
15180,74.1289,24513.7,2.46807
15246,74.4512,24613.3,2.4793
15312,74.7734,24712.3,2.4904
15378,75.0957,24826.7,2.5
15444,75.418,24928.3,2.51224
15510,75.7402,25023.9,2.52247
15576,76.0625,25132.9,2.53438
15642,76.3848,25249.5,2.54568
15708,76.707,25355.8,2.55674
15774,77.0293,25449.6,2.56801
15840,77.3516,25538,2.57682
15906,77.6738,25638.5,2.58838
15972,77.9961,25746.8,2.59822
16038,78.3184,25847.6,2.60925
16104,78.6406,25936,2.61948
16170,78.9629,26020.5,2.62911
16236,79.2852,26133.6,2.64103
16302,79.6074,26238.7,2.65087
16368,79.9297,26341.2,2.6631
16434,80.252,26432.3,2.67221
16500,80.5742,26534.2,2.68282
16566,80.8965,26640.7,2.694721
16632,81.21875,26738.4,2.70406
16698,81.541,26837.9,2.71513
16764,81.8633,26925,2.72539
16830,82.1855,27021.9,2.73586
16896,82.5078,27136.1,2.74761
16962,82.8301,27231.8,2.75927
17028,83.1523,27337,2.76914
17094,83.4746,27432.9,2.78066
17160,83.7969,27533.8,2.79061
17226,84.1191,27640.7,2.80125
17292,84.4414,27740.2,2.81202
17358,84.7637,27838.5,2.82196
17424,85.0859,27934.2,2.83295
17490,85.4082,28041.1,2.84374
17556,85.7305,28130.7,2.8546
17622,86.0527,28231.6,2.86693
17688,86.375,28314.4,2.87547
17754,86.6973,28438,2.88791
17820,87.0195,28531.4,2.89836
17886,87.3418,28630.4,2.9091
17952,87.6641,28729.4,2.91873
18018,87.9863,28836.1,2.92915
18084,88.3086,28931,2.94123
18150,88.6309,29033.5,2.95114
18216,88.9531,29123.2,2.96126
18282,89.2754,29232.2,2.97423
18348,89.5977,29322.7,2.98422
18414,89.9199,29434.8,2.99617
18480,90.2422,29523.8,3.00578
18546,90.5645,29613.7,3.01584
18612,90.8867,29718.5,3.02707
18678,91.209,29821.7,3.03792
18744,91.53125,29910.7,3.04925
18810,91.8535,30003.2,3.06019
18876,92.1758,30105,3.07042
18942,92.498,30209.9,3.08248
19008,92.8203,30304.2,3.09222
19074,93.1426,30399.5,3.10259
19140,93.4648,30483.3,3.11319
19206,93.7871,30579.4,3.12342
19272,94.1094,30671.8,3.1355
19338,94.4316,30773.8,3.14594
19404,94.7539,30852.5,3.1557
19470,95.0762,30957.9,3.1669
19536,95.3984,31044.1,3.17737
19600,95.7109,7350.38,3.34437