Folder: DACS/ASM109_2021_data/MTS/UD

Note: README.md
# DACS
 Rep. for Matlab and Latex Link + Sources

File: MTS_UD_1.csv
,Time [s],Load [N],Displacement [mm]
0,0.0078125,-153.956,-0.000198036
58,0.291016,-102.69,0.00911862
116,0.574219,-12.181,0.017956
174,0.857422,70.4185,0.0279915
232,1.140625,151.534,0.038074
290,1.42383,228.665,0.0453669
348,1.70703,303.875,0.0550407
406,1.99023,391.349,0.065804
464,2.27344,483.616,0.075193
522,2.55664,572.119,0.0852826
580,2.83984,646.638,0.0931567
638,3.12305,722.363,0.102557
696,3.40625,793.87,0.111762
754,3.68945,868.896,0.120446
812,3.97266,974.25,0.132031
870,4.25586,1055.19,0.140858
928,4.53906,1136.69,0.150377
986,4.82227,1216.92,0.158594
1044,5.10547,1295.68,0.167221
1102,5.38867,1377.16,0.178054
1160,5.671875,1463.64,0.187897
1218,5.95508,1543.38,0.199293
1276,6.23828,1622.17,0.207442
1334,6.52148,1705.58,0.215935
1392,6.80469,1791.17,0.224679
1450,7.08789,1868.86,0.234181
1508,7.37109,1957.58,0.244292
1566,7.6543,2040.25,0.25312
1624,7.9375,2120.61,0.263442
1682,8.2207,2200.49,0.272283
1740,8.50391,2279.76,0.282118
1798,8.78711,2360.12,0.291677
1856,9.07031,2452.95,0.301856
1914,9.35352,2525.11,0.310168
1972,9.63672,2611.74,0.320857
2030,9.91992,2681.59,0.328829
2088,10.2031,2758.96,0.3386794
2146,10.4863,2851.46,0.347667
2204,10.7695,2934.24,0.3552027
2262,11.0527,3014.36,0.3669329
2320,11.3359,3098.03,0.374891
2378,11.6191,3175.39,0.383428
2436,11.9023,3262.79,0.395095
2494,12.1855,3345.42,0.402377
2552,12.46875,3435.93,0.4146485
2610,12.752,3515.03,0.42386
2668,13.0352,3597.53,0.43263
2726,13.3184,3677,0.4418613
2784,13.6016,3761.7,0.4516165
2842,13.8848,3841.06,0.461435
2900,14.168,3928.72,0.470185
2958,14.4512,4002.75,0.47856
3016,14.7344,4097.29,0.490453
3074,15.0176,4156.51,0.497138
3132,15.3008,4257.4,0.508335
3190,15.584,4327.19,0.517017
3248,15.8672,4419.6,0.528896
3306,16.1504,4504.59,0.537121
3364,16.4336,4588.2,0.5463
3422,16.7168,4659.66,0.554578
3480,17.0,4735.95,0.565137
3538,17.2832,4812.85,0.573763
3596,17.5664,4914.85,0.585464
3654,17.8496,4997.03,0.592511
3712,18.1328,5072.13,0.601786
3770,18.416,5161.62,0.612032
3828,18.6992,5239.52,0.620279
3886,18.9824,5321.75,0.630355
3944,19.2656,5404,0.640995
4002,19.5488,5494.6,0.651029
4060,19.832,5561.12,0.657678
4118,20.1152,5652.33,0.669454
4176,20.3984,5731.86,0.679549
4234,20.6816,5806.25,0.687595
4292,20.9648,5895.44,0.698248
4350,21.248,5978.48,0.707719
4408,21.53125,6067.79,0.71714
4466,21.8145,6146.21,0.724858
4524,22.0977,6223.14,0.7334702
4582,22.3809,6307.28,0.743824
4640,22.6641,6399.24,0.7546972
4698,22.9473,6477.41,0.763973
4756,23.2305,6553.53,0.772901
4814,23.5137,6639.98,0.781149
4872,23.7969,6710.12,0.791292
4930,24.0801,6805.55,0.801805
4988,24.3633,6882.85,0.812333
5046,24.6465,6961.64,0.81981
5104,24.9297,7034.4,0.827591
5162,25.2129,7115.83,0.838327
5220,25.4961,7202.34,0.848727
5278,25.7793,7285.14,0.857278
5336,26.0625,7379.89,0.867479
5394,26.3457,7457.58,0.877339
5452,26.6289,7529.66,0.885154
5510,26.9121,7615.89,0.89457
5568,27.1953,7702.56,0.9036206
5626,27.4785,7780.59,0.915795
5684,27.7617,7871.51,0.923625
5742,28.0449,7947.99,0.933378
5800,28.3281,8037.78,0.942782
5858,28.6113,8116.43,0.95202
5916,28.8945,8191.32,0.960758
5974,29.1777,8273.72,0.970172
6032,29.4609,8368.56,0.981762
6090,29.7441,8441.19,0.989506
6148,30.0273,8514.49,0.998338
6206,30.3105,8605.91,1.00926
6264,30.59375,8690.97,1.017517
6322,30.877,8768.33,1.02622
6380,31.1602,8854.63,1.03687
6438,31.4434,8936.78,1.04519
6496,31.7266,8997.95,1.05393
6554,32.0098,9094.03,1.06443
6612,32.293,9174.28,1.073898
6670,32.5762,9259.59,1.08356
6728,32.8594,9354.85,1.09336
6786,33.1426,9423.23,1.10178
6844,33.4258,9502.76,1.11157
6902,33.709,9585.14,1.12202
6960,33.9922,9661.05,1.13135
7018,34.2754,9746.89,1.1424
7076,34.5586,9830.52,1.149664
7134,34.8418,9913.11,1.15932
7192,35.125,9988.81,1.1679
7250,35.4082,10062.6,1.17668
7308,35.6914,10164.6,1.18961
7366,35.9746,10254.7,1.19909
7424,36.2578,10309,1.20618
7482,36.541,10394.4,1.21534
7540,36.8242,10480.3,1.22708
7598,37.1074,10564.6,1.23511
7656,37.3906,10651.3,1.24591
7714,37.6738,10725.3,1.25425
7772,37.957,10802,1.26244
7830,38.2402,10878.6,1.27225
7888,38.5234,10971.6,1.28129
7946,38.8066,11054.4,1.29384
8004,39.0898,11136,1.30094
8062,39.373,11214.2,1.31085
8120,39.65625,11293.3,1.31973
8178,39.9395,11379.2,1.33013
8236,40.2227,11453.4,1.33805
8294,40.5059,11532.7,1.348827
8352,40.7891,11625,1.35811
8410,41.0723,11708.7,1.367522
8468,41.3555,11777.5,1.375599
8526,41.6387,11848.1,1.38492
8584,41.9219,11949.2,1.39492
8642,42.2051,12028.7,1.40407
8700,42.4883,12106.3,1.41561
8758,42.7715,12196.3,1.42344
8816,43.0547,12272,1.43269
8874,43.3379,12355.9,1.44232
8932,43.6211,12437.5,1.45199
8990,43.9043,12510.4,1.46087
9048,44.1875,12603.7,1.47301
9106,44.4707,12677.3,1.48111
9164,44.7539,12732.6,1.48866
9222,45.0371,12828.7,1.49871
9280,45.3203,12917.1,1.50933
9338,45.6035,13007.2,1.51969
9396,45.8867,13084,1.52823
9454,46.1699,13161.6,1.53737
9512,46.4531,13231.5,1.54558
9570,46.7363,13328.1,1.55551
9628,47.0195,13393.8,1.56481
9686,47.3027,13491.7,1.57519
9744,47.5859,13569.2,1.58432
9802,47.8691,13650.9,1.5924
9860,48.1523,13714.3,1.60198
9918,48.4355,13810,1.61041
9976,48.71875,13869,1.62081
10034,49.002,13973.9,1.63287
10092,49.2852,14061.3,1.6421
10150,49.5684,14134.1,1.65112
10208,49.8516,14191.2,1.65765
10266,50.1348,14288.7,1.66936
10324,50.418,14364.3,1.67685
10382,50.7012,14460.5,1.68929
10440,50.9844,14534.9,1.69724
10498,51.2676,14604.8,1.70609
10556,51.5508,14698.6,1.71715
10614,51.834,14768.9,1.72509
10672,52.1172,14853.6,1.73369
10730,52.4004,14937.8,1.74385
10788,52.6836,15022.2,1.75474
10846,52.9668,15101.8,1.7627
10904,53.25,15176.2,1.77214
10962,53.5332,15239.3,1.78043
11020,53.8164,15341.7,1.79164
11078,54.0996,15426.9,1.80202
11136,54.3828,15519.2,1.81182
11194,54.666,15586.2,1.82048
11252,54.9492,15660.6,1.82881
11310,55.2324,15748.6,1.83907
11368,55.5156,15825.7,1.84946
11426,55.7988,15903.2,1.85858
11484,56.082,15987,1.86621
11542,56.3652,16073.2,1.87638
11600,56.6484,16147.1,1.88517
11658,56.9316,16210.9,1.89425
11716,57.2148,16314.6,1.9048
11774,57.498,16384.4,1.91513
11832,57.78125,16469.4,1.92503
11890,58.0645,16560.1,1.93406
11948,58.3477,16628.8,1.94072
12006,58.6309,16709.8,1.9509
12064,58.9141,16790.5,1.96155
12122,59.1973,16866.7,1.97145
12180,59.4805,16955.4,1.98063
12238,59.7637,17033.6,1.98993
12296,60.0469,17077.5,1.9981
12354,60.3301,17181.9,2.00809
12412,60.6133,17259.5,2.01788
12470,60.8965,17355.7,2.02836
12528,61.1797,17424.2,2.03675
12586,61.4629,17510.6,2.04719
12644,61.7461,17590.4,2.05542
12702,62.0293,17647.4,2.06349
12760,62.3125,17749.5,2.07434
12818,62.5957,17830.3,2.08451
12876,62.8789,17908.2,2.09421
12934,63.1621,17990.9,2.1032
12992,63.4453,18059.4,2.11069
13050,63.7285,18114.7,2.12098
13108,64.0117,18219.9,2.12983
13166,64.2949,18304.2,2.14019
13224,64.5781,18384.1,2.14926
13282,64.8613,18462.4,2.15989
13340,65.1445,18520,2.1673
13398,65.4277,18605.5,2.17643
13456,65.7109,18707.2,2.18883
13514,65.9941,18777.1,2.19638
13572,66.2773,18859,2.20757
13630,66.5605,18915.3,2.21498
13688,66.84375,19004,2.2248
13746,67.127,19073.2,2.23472
13804,67.4102,19172.4,2.24413
13862,67.6934,19251.7,2.25406
13920,67.9766,19324.6,2.26393
13978,68.2598,19407.9,2.2733
14036,68.543,19475,2.281863
14094,68.8262,19546.5,2.29123
14152,69.1094,19643.6,2.30008
14210,69.3926,19728,2.31027
14268,69.6758,19809.9,2.32112
14326,69.959,19872.7,2.32901
14384,70.2422,19954.9,2.338294
14442,70.5254,20019.9,2.35005
14500,70.8086,20103.9,2.35781
14558,71.0918,20199,2.36827
14616,71.375,20280.3,2.377624
14674,71.6582,20336.3,2.38549
14732,71.9414,20410.5,2.39559
14790,72.2246,20483.3,2.40528
14848,72.5078,20594.5,2.41562
14906,72.791,20667.4,2.42355
14964,73.0742,20750.6,2.43317
15022,73.3574,20830.6,2.442976
15080,73.6406,20888.8,2.45031
15138,73.9238,20967.1,2.46061
15196,74.207,21047,2.47057
15254,74.4902,21146,2.48127
15312,74.7734,21224,2.48999
15370,75.0566,21280.5,2.49847
15428,75.3398,21356,2.50917
15486,75.623,21447.8,2.5189
15544,75.90625,21525.5,2.52821
15602,76.1895,21609.1,2.53812
15660,76.4727,21682.2,2.545399
15718,76.7559,21758.6,2.55528
15776,77.0391,21828.8,2.56555
15834,77.3223,21897.9,2.57543
15892,77.6055,22000.4,2.585
15950,77.8887,22075.7,2.59289
16008,78.1719,22158.6,2.60213
16066,78.4551,22222.7,2.61243
16124,78.7383,22291.1,2.62244
16182,79.0215,22367.6,2.631268
16240,79.3047,22464.6,2.64149
16298,79.5879,22536,2.64998
16356,79.8711,22601.6,2.65937
16414,80.1543,22670.6,2.669486
16472,80.4375,22764.5,2.67797
16530,80.7207,22855.8,2.68957
16588,81.0039,22918.3,2.69843
16646,81.2871,22998.4,2.70739
16704,81.5703,23070.1,2.71576
16762,81.8535,23139.8,2.72566
16820,82.1367,23208.3,2.73395
16878,82.4199,23303.7,2.74553
16936,82.7031,23380.9,2.75459
16994,82.9863,23450.4,2.76302
17052,83.2695,23514.1,2.7714
17110,83.5527,23586.7,2.78155
17168,83.8359,23676.1,2.79159
17226,84.1191,23747,2.80147
17263,84.2998,-5770.45,3.04221

File: MTS_UD_2.csv
,Time [s],Load [N],Displacement [mm]
0,0.0078125,-258.2,-0.0003580749
54,0.271484,-128.126,0.00753477
108,0.535156,-49.6676,0.0167696
162,0.798828,44.7134,0.0252704
216,1.0625,155.31,0.0343394
270,1.32617,269.642,0.0441094
324,1.58984,350.92,0.0521158
378,1.85352,451.105,0.0614566
432,2.11719,527.16,0.068007
486,2.38086,595.196,0.0776155
540,2.64453,734.83,0.0862683
594,2.9082,816.67,0.095327
648,3.171875,920.169,0.104518
702,3.43555,1014.06,0.1130712
756,3.69922,1099.87,0.120592
810,3.96289,1196.57,0.13
864,4.22656,1253.49,0.13695
918,4.49023,1336.37,0.147289
972,4.75391,1483.72,0.158078
1026,5.01758,1577.92,0.165415
1080,5.28125,1676.28,0.1743941
1134,5.54492,1770.34,0.1854296
1188,5.80859,1850.16,0.190268
1242,6.07227,1925.58,0.200385
1296,6.33594,2030.16,0.208149
1350,6.59961,2098.83,0.218595
1404,6.86328,2226.51,0.226735
1458,7.12695,2323.1,0.236355
1512,7.390625,2410.02,0.244719
1566,7.6543,2490.32,0.253752
1620,7.91797,2581.2,0.259889
1674,8.18164,2670.33,0.269995
1728,8.44531,2785.08,0.278893
1782,8.70898,2880.84,0.289553
1836,8.97266,2985.38,0.296793
1890,9.23633,3073.46,0.307363
1944,9.5,3171.98,0.314292
1998,9.76367,3246.24,0.323101
2052,10.0273,3317.46,0.331315
2106,10.291,3413.58,0.340546
2160,10.5547,3538.48,0.350016
2214,10.8184,3627.09,0.3581205
2268,11.082,3715.73,0.367937
2322,11.3457,3822.04,0.376235
2376,11.6094,3875.33,0.382142
2430,11.873,3951.13,0.392604
2484,12.1367,4091.43,0.403313
2538,12.4004,4140.32,0.411737
2592,12.6641,4286.15,0.419842
2646,12.9277,4366.25,0.429929
2700,13.1914,4460.43,0.43713
2754,13.4551,4558.26,0.447747
2808,13.71875,4613.03,0.454929
2862,13.9824,4713.42,0.46364
2916,14.2461,4832.42,0.472251
2970,14.5098,4926.77,0.481925
3024,14.7734,5027.14,0.490309
3078,15.0371,5124.6,0.500551
3132,15.3008,5185.98,0.507845
3186,15.5645,5292.91,0.51724
3240,15.8281,5384.2,0.525305
3294,16.0918,5455.06,0.5350976
3348,16.3555,5576.77,0.544224
3402,16.6191,5673.71,0.5536598
3456,16.8828,5774.94,0.562242
3510,17.1465,5867.66,0.571165
3564,17.4102,5919.61,0.577949
3618,17.6738,6024.14,0.587707
3672,17.9375,6128.07,0.595535
3726,18.2012,6208.86,0.604676
3780,18.4648,6326.34,0.614909
3834,18.7285,6422.46,0.62491
3888,18.9922,6488.71,0.630449
3942,19.2559,6584.3,0.64094
3996,19.5195,6666.28,0.648333
4050,19.7832,6754.52,0.6584
4104,20.0469,6879.27,0.668055
4158,20.3105,6954.06,0.6769042
4212,20.5742,7051,0.684872
4266,20.8379,7126.82,0.69348
4320,21.1016,7222.87,0.700112
4374,21.3652,7315.23,0.710106
4428,21.6289,7403.8,0.717711
4482,21.8926,7489.44,0.729346
4536,22.15625,7602.93,0.738039
4590,22.4199,7683.57,0.748174
4644,22.6836,7773.41,0.754271
4698,22.9473,7870.42,0.7626338
4752,23.2109,7929.49,0.77086
4806,23.4746,8051.39,0.78066
4860,23.7383,8148.68,0.790816
4914,24.002,8230.15,0.798415
4968,24.2656,8333.94,0.809184
5022,24.5293,8429.5,0.816974
5076,24.793,8523.44,0.827219
5130,25.0566,8595.06,0.83442
5184,25.3203,8686.65,0.842885
5238,25.584,8790.9,0.852206
5292,25.8477,8875.64,0.861722
5346,26.1113,8977.94,0.871529
5400,26.375,9062.85,0.878075
5454,26.6387,9163.23,0.886904
5508,26.9023,9231.39,0.895924
5562,27.166,9304.51,0.904304
5616,27.4297,9436.46,0.914885
5670,27.6934,9512.24,0.923469
5724,27.957,9620.63,0.932339
5778,28.2207,9707.2,0.943231
5832,28.4844,9778.96,0.947323
5886,28.748,9869.69,0.955261
5940,29.0117,9923.78,0.96326
5994,29.2754,10043.2,0.974477
6048,29.5391,10143.1,0.984075
6102,29.8027,10246.7,0.993081
6156,30.0664,10326.9,1.00057
6210,30.3301,10426.4,1.01051
6264,30.59375,10492,1.0163
6318,30.8574,10567.3,1.0271
6372,31.1211,10671.4,1.03633
6426,31.3848,10768.3,1.04404
6480,31.6484,10877.3,1.05278
6534,31.9121,10963.3,1.06265
6588,32.1758,11052.8,1.07064
6642,32.4395,11144.5,1.08107
6696,32.7031,11221.5,1.08718
6750,32.9668,11306,1.098618
6804,33.2305,11424.7,1.105734
6858,33.4941,11497.1,1.11386
6912,33.7578,11600.4,1.12482
6966,34.0215,11682.3,1.13176
7020,34.2852,11769.7,1.13963
7074,34.5488,11846.3,1.15065
7128,34.8125,11907.3,1.15745
7182,35.0762,12034.2,1.16824
7236,35.3398,12127,1.17819
7290,35.6035,12217.2,1.18478
7344,35.8672,12314.9,1.19316
7398,36.1309,12406.6,1.20276
7452,36.3945,12482.2,1.20971
7506,36.6582,12570.4,1.21991
7560,36.9219,12677.5,1.22967
7614,37.1855,12750.2,1.2372
7668,37.4492,12868.3,1.24648
7722,37.7129,12943.4,1.25567
7776,37.9766,13022.3,1.26393
7830,38.2402,13109.6,1.27487
7884,38.5039,13175,1.27998
7938,38.7676,13288.6,1.289999
7992,39.03125,13385.5,1.29855
8046,39.2949,13469.6,1.30808
8100,39.5586,13565.6,1.31727
8154,39.8223,13666.2,1.32588
8208,40.0859,13737.5,1.333158
8262,40.3496,13823.8,1.34081
8316,40.6133,13906.6,1.3519
8370,40.877,13997.8,1.36074
8424,41.1406,14100.3,1.36981
8478,41.4043,14197.2,1.37937
8532,41.668,14284.4,1.38639
8586,41.9316,14367.5,1.39584
8640,42.1953,14431.7,1.403769
8694,42.459,14544.1,1.41393
8748,42.7227,14632.7,1.4214
8802,42.9863,14720.5,1.43298
8856,43.25,14827.9,1.44165
8910,43.5137,14899.9,1.44788
8964,43.7773,14991.9,1.45609
9018,44.041,15077.2,1.46709
9072,44.3047,15123.3,1.47461
9126,44.5684,15246.5,1.48449
9180,44.832,15348.9,1.49282
9234,45.0957,15427.7,1.50284
9288,45.3594,15526.6,1.51022
9342,45.623,15619.2,1.51941
9396,45.8867,15679.9,1.52605
9450,46.1504,15778.4,1.53666
9504,46.4141,15880.9,1.546103
9558,46.6777,15962.4,1.55517
9612,46.9414,16067.5,1.5627
9666,47.2051,16146.2,1.57164
9720,47.46875,16237.7,1.579931
9774,47.7324,16325.9,1.58901
9828,47.9961,16397.5,1.59678
9882,48.2598,16495.9,1.6079
9936,48.5234,16586.7,1.61564
9990,48.7871,16668.5,1.62533
10044,49.0508,16763.1,1.63364
10098,49.3145,16852.9,1.64145
10152,49.5781,16909.6,1.64976
10206,49.8418,17031.3,1.65973
10260,50.1055,17100.1,1.66886
10314,50.3691,17205.1,1.67697
10368,50.6328,17300,1.68627
10422,50.8965,17381.5,1.69374
10476,51.1602,17477.3,1.70499
10530,51.4238,17566,1.71179
10584,51.6875,17645.2,1.72002
10638,51.9512,17733.4,1.72911
10692,52.2148,17823.4,1.73857
10746,52.4785,17917.4,1.74967
10800,52.7422,18017.8,1.75692
10854,53.0059,18088.6,1.76385
10908,53.2695,18188.7,1.77436
10962,53.5332,18267.7,1.78305
11016,53.7969,18311.9,1.79139
11070,54.0605,18431.7,1.79969
11124,54.3242,18533.6,1.81035
11178,54.5879,18621.7,1.81903
11232,54.8516,18700.9,1.82828
11286,55.1152,18794,1.83722
11340,55.3789,18876.3,1.8444
11394,55.6426,18957.4,1.85282
11448,55.90625,19033.8,1.86162
11502,56.1699,19129.5,1.86962
11556,56.4336,19235.1,1.88105
11610,56.6973,19307.8,1.88901
11664,56.9609,19411.1,1.89685
11718,57.2246,19478.8,1.90479
11772,57.4883,19558.5,1.91201
11826,57.752,19668,1.92238
11880,58.0156,19741.2,1.93338
11934,58.2793,19830.4,1.94253
11988,58.543,19944.5,1.95072
12042,58.8066,20014.3,1.9588
12096,59.0703,20101.4,1.96669
12150,59.334,20188.5,1.97631
12204,59.5977,20258.1,1.98381
12258,59.8613,20358.2,1.99386
12312,60.125,20464.8,2.00167
12366,60.3887,20534.6,2.01231
12420,60.6523,20624.4,2.021066
12474,60.916,20708,2.02954
12528,61.1797,20782.2,2.03737
12582,61.4434,20862.8,2.04601
12636,61.707,20959.6,2.0548
12690,61.9707,21064,2.06491
12744,62.2344,21149.7,2.072593
12798,62.498,21225.7,2.08139
12852,62.7617,21323.5,2.08962
12906,63.0254,21401.5,2.0991
12960,63.2891,21456,2.10732
13014,63.5527,21570.8,2.11669
13068,63.8164,21650.3,2.1267
13122,64.0801,21737,2.13456
13176,64.34375,21841.3,2.14275
13230,64.6074,21920.7,2.15051
13284,64.8711,22014.7,2.16101
13338,65.1348,22083.3,2.1699
13392,65.3984,22147.4,2.17759
13446,65.6621,22266.3,2.18824
13500,65.9258,22348.6,2.19629
13554,66.1895,22430.1,2.20612
13608,66.4531,22526.8,2.21395
13662,66.7168,22594.2,2.22013
13716,66.9805,22662,2.22901
13770,67.2441,22775.8,2.23946
13824,67.5078,22868.7,2.24889
13878,67.7715,22976,2.25857
13932,68.0352,23046.5,2.26606
13986,68.2988,23111.1,2.27639
14040,68.5625,23204.8,2.28277
14094,68.8262,23275.8,2.29026
14148,69.0898,23354.3,2.30027
14202,69.3535,23459.9,2.31042
14256,69.6172,23564,2.31931
14310,69.8809,23646.1,2.32896
14364,70.1445,23736.8,2.33675
14418,70.4082,23815.7,2.3451
14472,70.6719,23897.6,2.35219
14526,70.9355,23987.1,2.36252
14580,71.1992,24072.8,2.37264
14634,71.4629,24165.1,2.38158
14688,71.7266,24268.3,2.39102
14742,71.9902,24340.2,2.39974
14796,72.2539,24423.9,2.40766
14850,72.5176,24497.5,2.41625
14904,72.78125,24568,2.42402
14958,73.0449,24663.3,2.434304
15012,73.3086,24753.8,2.44207
15066,73.5723,24840,2.45112
15120,73.8359,24940,2.4612
15174,74.0996,25004.8,2.46943
15228,74.3633,25092.1,2.47524
15282,74.627,25148.6,2.48574
15336,74.8906,25245.7,2.49406
15390,75.1543,25339.4,2.50383
15444,75.418,25433,2.51244
15498,75.6816,25498.1,2.52075
15552,75.9453,25581.8,2.52928
15606,76.209,25678.9,2.5376
15660,76.4727,25730.8,2.54677
15714,76.7363,25835.2,2.55668
15768,77.0,25910.7,2.56348
15822,77.2637,26012.3,2.57399
15876,77.5273,26110.3,2.58229
15930,77.791,26181.3,2.59119
15962,77.9473,-243.089,2.883481