Folder: DACS/ASM109_2021_data/MTS/UD (part 3)

File: MTS_UD_5.csv
,Time [s],Load [N],Displacement [mm]
0,0.0078125,-257.582,0.00189453
66,0.330078,-238.408,0.0105125
132,0.652344,-103.765,0.0221197
198,0.974609,8.63952,0.0315294
264,1.296875,91.7264,0.042939
330,1.61914,217.666,0.053595
396,1.94141,325.859,0.0644879
462,2.26367,409.729,0.0755779
528,2.58594,482.432,0.0843117
594,2.9082,640.952,0.0948697
660,3.23047,748.407,0.106093
726,3.55273,847.804,0.118349
792,3.875,931.354,0.126924
858,4.19727,1043.64,0.139725
924,4.51953,1152.92,0.150119
990,4.8418,1258.42,0.161013
1056,5.16406,1358.73,0.170445
1122,5.48633,1467.03,0.181509
1188,5.80859,1564.36,0.192672
1254,6.13086,1650.8,0.201979
1320,6.453125,1778.74,0.213623
1386,6.77539,1886.48,0.224626
1452,7.09766,1963.76,0.235154
1518,7.41992,2091.72,0.247615
1584,7.74219,2202.68,0.255637
1650,8.06445,2309.64,0.268405
1716,8.38672,2384.53,0.27845
1782,8.70898,2499.07,0.287147
1848,9.03125,2621.92,0.300656
1914,9.35352,2717.27,0.310446
1980,9.67578,2815.77,0.319725
2046,9.99805,2918.47,0.331049
2112,10.3203,3034,0.3421019
2178,10.6426,3128.48,0.352514
2244,10.9648,3234.65,0.364974
2310,11.2871,3339.63,0.373836
2376,11.6094,3441.75,0.3854
2442,11.9316,3550.75,0.396259
2508,12.2539,3654.26,0.407312
2574,12.5762,3761.73,0.418591
2640,12.8984,3820.45,0.428286
2706,13.2207,3957.34,0.43681
2772,13.543,4079.57,0.450785
2838,13.8652,4171.16,0.460921
2904,14.1875,4243.59,0.470075
2970,14.5098,4375.87,0.481365
3036,14.832,4497.31,0.495171
3102,15.1543,4598.45,0.503684
3168,15.4766,4675.17,0.513669
3234,15.7988,4800.9,0.523661
3300,16.1211,4908.31,0.536229
3366,16.4434,4998.85,0.547021
3432,16.7656,5088.63,0.556805
3498,17.0879,5197.25,0.567624
3564,17.4102,5322.18,0.579514
3630,17.7324,5411.42,0.589467
3696,18.0547,5523.47,0.599725
3762,18.377,5632.26,0.611557
3828,18.6992,5723.21,0.621948
3894,19.0215,5828.3,0.630521
3960,19.34375,5937.28,0.643729
4026,19.666,6043.99,0.654638
4092,19.9883,6109.22,0.663633
4158,20.3105,6214.5,0.674704
4224,20.6328,6348.72,0.686769
4290,20.9551,6461.34,0.698935
4356,21.2773,6534.57,0.706662
4422,21.5996,6664.46,0.718387
4488,21.9219,6765.65,0.728357
4554,22.2441,6877.03,0.739789
4620,22.5664,6965.47,0.751884
4686,22.8887,7067.76,0.761241
4752,23.2109,7184.02,0.774387
4818,23.5332,7278.39,0.782055
4884,23.8555,7387.33,0.7946
4950,24.1777,7491.01,0.804801
5016,24.5,7591.57,0.815013
5082,24.8223,7670.3,0.823761
5148,25.1445,7796.4,0.836928
5214,25.4668,7899.61,0.8469348
5280,25.7891,7988.13,0.858309
5346,26.1113,8069.89,0.867904
5412,26.4336,8207.77,0.880885
5478,26.7559,8311.99,0.890076
5544,27.0781,8378.97,0.902694
5610,27.4004,8498.35,0.912352
5676,27.7227,8621.03,0.922676
5742,28.0449,8722.45,0.934605
5808,28.3672,8813.78,0.944134
5874,28.6895,8920.53,0.955005
5940,29.0117,9028.36,0.966077
6006,29.334,9140.39,0.977231
6072,29.65625,9229.05,0.986681
6138,29.9785,9329.57,0.99716
6204,30.3008,9424.45,1.00832
6270,30.623,9549.06,1.01952
6336,30.9453,9650.55,1.0302
6402,31.2676,9746.53,1.04034
6468,31.5898,9842.08,1.0515
6534,31.9121,9948.81,1.06204
6600,32.2344,10058.2,1.07323
6666,32.5566,10172,1.08564
6732,32.8789,10250.6,1.09347
6798,33.2012,10327.2,1.10359
6864,33.5234,10474.3,1.1178
6930,33.8457,10568.4,1.12677
6996,34.168,10658.3,1.13758
7062,34.4902,10764.6,1.14716
7128,34.8125,10873,1.15863
7194,35.1348,10979.2,1.16976
7260,35.457,11058.7,1.17976
7326,35.7793,11168.8,1.19002
7392,36.1016,11284.9,1.20252
7458,36.4238,11380.7,1.21245
7524,36.7461,11482.9,1.22287
7590,37.0684,11586.4,1.23582
7656,37.3906,11684.9,1.2444
7722,37.7129,11760.6,1.25422
7788,38.0352,11893.6,1.26657
7854,38.3574,12004.7,1.27761
7920,38.6797,12071.3,1.28869
7986,39.002,12162.7,1.29927
8052,39.3242,12305.2,1.30922
8118,39.6465,12405.6,1.32047
8184,39.96875,12472.5,1.33105
8250,40.291,12598.2,1.34049
8316,40.6133,12718.1,1.354
8382,40.9355,12819.5,1.36286
8448,41.2578,12904.5,1.37262
8514,41.5801,12999.4,1.38416
8580,41.9023,13118.2,1.39521
8646,42.2246,13207.4,1.40641
8712,42.5469,13324.3,1.41606
8778,42.8691,13425.7,1.4276
8844,43.1914,13518.4,1.43792
8910,43.5137,13622.8,1.44932
8976,43.8359,13724.7,1.46108
9042,44.1582,13836.1,1.4709
9108,44.4805,13918.4,1.48126
9174,44.8027,14007,1.49088
9240,45.125,14135.1,1.50277
9306,45.4473,14235.3,1.51493
9372,45.7695,14320.2,1.52341
9438,46.0918,14415.1,1.5337
9504,46.4141,14541.8,1.54462
9570,46.7363,14636.3,1.557
9636,47.0586,14720.9,1.56733
9702,47.3809,14831,1.57712
9768,47.7031,14938.1,1.58906
9834,48.0254,15046.4,1.6009
9900,48.3477,15140.4,1.60957
9966,48.6699,15245,1.61975
10032,48.9922,15339.1,1.63001
10098,49.3145,15439.3,1.64002
10164,49.6367,15546.3,1.65214
10230,49.959,15660.7,1.66478
10296,50.28125,15730.3,1.6739
10362,50.6035,15824.2,1.6827
10428,50.9258,15966.3,1.69767
10494,51.248,16055.4,1.70875
10560,51.5703,16140.3,1.71748
10626,51.8926,16213.3,1.72733
10692,52.2148,16355.9,1.73909
10758,52.5371,16453.6,1.75053
10824,52.8594,16547.8,1.76047
10890,53.1816,16653.2,1.77095
10956,53.5039,16756,1.78186
11022,53.8262,16861.4,1.79371
11088,54.1484,16955.7,1.802
11154,54.4707,17065.5,1.81449
11220,54.793,17153.9,1.82567
11286,55.1152,17246.2,1.83415
11352,55.4375,17355.2,1.84617
11418,55.7598,17462.7,1.85741
11484,56.082,17554.5,1.86851
11550,56.4043,17654.3,1.87906
11616,56.7266,17756.8,1.88875
11682,57.0488,17862.3,1.90024
11748,57.3711,17953.8,1.9105
11814,57.6934,18019.8,1.9212
11880,58.0156,18165.5,1.93117
11946,58.3379,18270.9,1.94393
12012,58.6602,18355,1.95327
12078,58.9824,18443.6,1.96288
12144,59.3047,18557.4,1.97572
12210,59.627,18682.8,1.98776
12276,59.9492,18759,1.99599
12342,60.2715,18849.1,2.00736
12408,60.59375,18963.8,2.01696
12474,60.916,19066.8,2.0295
12540,61.2383,19167.7,2.04027
12606,61.5605,19263.4,2.051285
12672,61.8828,19360.4,2.06162
12738,62.2051,19445.9,2.07147
12804,62.5273,19559.7,2.0828
12870,62.8496,19665.9,2.09345
12936,63.1719,19753.1,2.10455
13002,63.4941,19841.9,2.11347
13068,63.8164,19960.3,2.12578
13134,64.1387,20061.3,2.13593
13200,64.4609,20153,2.14708
13266,64.7832,20224.7,2.15623
13332,65.1055,20361.5,2.1694
13398,65.4277,20470,2.18018
13464,65.75,20548.3,2.19126
13530,66.0723,20651,2.19933
13596,66.3945,20738.9,2.20999
13662,66.7168,20855.5,2.2224
13728,67.0391,20948.1,2.2327
13794,67.3613,21043.6,2.24256
13860,67.6836,21150.1,2.25586
13926,68.0059,21245.1,2.26459
13992,68.3281,21335,2.27509
14058,68.6504,21455.5,2.28722
14124,68.9727,21548,2.29783
14190,69.2949,21627.7,2.30736
14256,69.6172,21749.5,2.31816
14322,69.9395,21854.4,2.33024
14388,70.2617,21935.8,2.34041
14454,70.584,21996.3,2.34984
14520,70.90625,22133.5,2.3623
14586,71.2285,22238.9,2.37258
14652,71.5508,22329.9,2.3844
14718,71.873,22419.9,2.39258
14784,72.1953,22520.3,2.40543
14850,72.5176,22631.6,2.41509
14916,72.8398,22721.2,2.42548
14982,73.1621,22830.6,2.43727
15048,73.4844,22924.6,2.4477
15114,73.8066,23017.3,2.457839
15180,74.1289,23118,2.46794
15246,74.4512,23228.5,2.48059
15312,74.7734,23323.4,2.49058
15378,75.0957,23408.5,2.50019
15444,75.418,23500.1,2.51137
15510,75.7402,23608.4,2.52313
15576,76.0625,23695.9,2.53542
15642,76.3848,23773.5,2.54301
15708,76.707,23905.2,2.55435
15774,77.0293,24012.9,2.56635
15840,77.3516,24097.4,2.57655
15906,77.6738,24195.9,2.58755
15972,77.9961,24297.6,2.59857
16038,78.3184,24400.3,2.60939
16104,78.6406,24495.8,2.61989
16170,78.9629,24590,2.63007
16236,79.2852,24688.3,2.64077
16302,79.6074,24789.1,2.65309
16368,79.9297,24884.3,2.6629
16434,80.252,24999,2.67386
16500,80.5742,25070.1,2.68471
16566,80.8965,25168.7,2.69508
16632,81.21875,25267.1,2.70477
16698,81.541,25371.5,2.71625
16764,81.8633,25468,2.72783
16830,82.1855,25531,2.7381
16896,82.5078,25641.5,2.74768
16962,82.8301,25761.2,2.75954
17028,83.1523,25838.7,2.77055
17094,83.4746,25936.4,2.78132
17160,83.7969,26031.4,2.79116
17226,84.1191,26145.4,2.80334
17292,84.4414,26227.6,2.81394
17358,84.7637,26303,2.82383
17424,85.0859,25565.1,2.83513
17490,85.4082,25676.8,2.84771
17556,85.7305,25761,2.85692
17622,86.0527,25885.1,2.86793
17688,86.375,25968.6,2.87791
17754,86.6973,26060.7,2.88927
17820,87.0195,26159.4,2.89804
17886,87.3418,26260.3,2.91068
17952,87.6641,26358.2,2.92077
18018,87.9863,26437.3,2.93198
18084,88.3086,26514.4,2.94098
18150,88.6309,26652.4,2.95324
18216,88.9531,26743.9,2.96442
18282,89.2754,26820.2,2.97396
18348,89.5977,26916.6,2.985131
18414,89.9199,27032.7,2.99798
18480,90.2422,27110.4,3.00744
18546,90.5645,27203.2,3.01715
18612,90.8867,27301.4,3.02777
18678,91.209,27397.4,3.03949
18744,91.53125,27488.6,3.04894
18810,91.8535,27576.7,3.06058
18876,92.1758,27667.9,3.0705
18942,92.498,27769.3,3.082927
19008,92.8203,27857.7,3.09206
19074,93.1426,27963.4,3.10273
19140,93.4648,28059,3.11539
19206,93.7871,28143.4,3.12389
19272,94.1094,28224,3.13343
19338,94.4316,28198.8,3.14735
19404,94.7539,28291.6,3.15833
19470,95.0762,28368.5,3.16762
19536,95.3984,28471.1,3.17839
19602,95.7207,28575.6,3.19008
19668,96.043,28662.4,3.19996
19734,96.3652,28712,3.21047
19756,96.4727,168.945,3.29274

File: MTS_UD_6.csv
,Time [s],Load [N],Displacement [mm]
0,0.0078125,-241.438,0.000224411
63,0.31543,-222.243,0.007866919
126,0.623047,-133.952,0.0187893
189,0.930664,-21.7126,0.0282338
252,1.23828,108.409,0.0421259
315,1.5459,211.541,0.0513884
378,1.85352,306.397,0.0599112
441,2.16113,401.197,0.070176
504,2.46875,495.635,0.0800335
567,2.77637,606.103,0.0917293
630,3.08398,711.096,0.101485
693,3.3916,820.304,0.112469
756,3.69922,914.098,0.121532
819,4.00684,996.05,0.130924
882,4.31445,1099.82,0.140073
945,4.62207,1209.53,0.14999
1008,4.92969,1324.35,0.162035
1071,5.2373,1427.18,0.174083
1134,5.54492,1529.2,0.183426
1197,5.85254,1623.6,0.192139
1260,6.16016,1726.68,0.203823
1323,6.46777,1832.38,0.214012
1386,6.77539,1938.69,0.224654
1449,7.08301,2030.09,0.235827
1512,7.390625,2127.11,0.243759
1575,7.69824,2194.83,0.254797
1638,8.00586,2309.96,0.2651538
1701,8.31348,2444.42,0.274494
1764,8.62109,2547.62,0.286565
1827,8.92871,2647.06,0.296648
1890,9.23633,2745.62,0.307169
1953,9.54395,2842.8,0.315632
2016,9.85156,2934.09,0.32621
2079,10.1592,3052.11,0.337066
2142,10.4668,3150.09,0.347433
2205,10.7744,3244.23,0.357895
2268,11.082,3328.17,0.3669937
2331,11.3896,3424.21,0.377578
2394,11.6973,3526.86,0.386309
2457,12.0049,3642.09,0.396236
2520,12.3125,3763.6,0.410258
2583,12.6201,3848.46,0.419351
2646,12.9277,3942.12,0.428737
2709,13.2354,4055.87,0.438809
2772,13.543,4155.9,0.44857
2835,13.8506,4260.19,0.460013
2898,14.1582,4358.52,0.4701148
2961,14.46582,4460.04,0.480196
3024,14.7734,4564.07,0.491291
3087,15.0811,4650.32,0.501003
3150,15.3887,4758.17,0.511111
3213,15.6963,4851.36,0.521019
3276,16.0039,4965.69,0.53151
3339,16.3115,5013.42,0.541709
3402,16.6191,5127.45,0.55283
3465,16.9268,5236.44,0.561549
3528,17.2344,5373.84,0.572828
3591,17.542,5468.91,0.582458
3654,17.8496,5573.27,0.594551
3717,18.1572,5667.65,0.603512
3780,18.4648,5765.77,0.6129
3843,18.7725,5870.07,0.625817
3906,19.0801,5964.73,0.634629
3969,19.3877,6074.7,0.643107
4032,19.6953,6176.03,0.655514
4095,20.00293,6259.29,0.665266
4158,20.3105,6321.42,0.675341
4221,20.6182,6437.13,0.684826
4284,20.9258,6566.56,0.695452
4347,21.2334,6677.89,0.707864
4410,21.541,6770.2,0.71701
4473,21.8486,6871.7,0.727076
4536,22.15625,6952.15,0.736118
4599,22.4639,7067.03,0.747686
4662,22.7715,7174.15,0.759336
4725,23.0791,7279.43,0.76879
4788,23.3867,7357.65,0.77861
4851,23.6943,7453.85,0.786972
4914,24.002,7552.88,0.798221
4977,24.30957,7662.96,0.807169
5040,24.6172,7768.32,0.819826
5103,24.9248,7872.99,0.831679
5166,25.2324,7969.33,0.841005
5229,25.54,8070.46,0.85031
5292,25.8477,8165.27,0.859203
5355,26.1553,8272.56,0.871715
5418,26.4629,8369.36,0.882467
5481,26.7705,8476.46,0.891992
5544,27.0781,8561.68,0.900262
5607,27.3857,8635.64,0.910572
5670,27.6934,8737.04,0.920748
5733,28.001,8865.25,0.930539
5796,28.3086,8969.67,0.942868
5859,28.6162,9064.83,0.951934
5922,28.9238,9158.32,0.962947
5985,29.2314,9257,0.972391
6048,29.5391,9352.96,0.980909
6111,29.84668,9475.79,0.993351
6174,30.1543,9574.2,1.00399
6237,30.4619,9668.37,1.013652
6300,30.7695,9759.72,1.02253
6363,31.0771,9842.96,1.03427
6426,31.3848,9958.52,1.04238
6489,31.6924,10047.1,1.05328
6552,32.0,10149.9,1.06426
6615,32.3076,10246.8,1.0747
6678,32.6152,10334.8,1.08522
6741,32.9229,10438.1,1.09427
6804,33.2305,10529.6,1.10395
6867,33.5381,10658.4,1.11597
6930,33.8457,10757.1,1.12744
6993,34.15332,10844.6,1.13569
7056,34.4609,10945.7,1.14595
7119,34.7686,11034.1,1.15649
7182,35.0762,11146.6,1.16696
7245,35.3838,11233.7,1.1767
7308,35.6914,11338.9,1.18714
7371,35.999,11416.7,1.19827
7434,36.3066,11505.9,1.20795
7497,36.6143,11621.5,1.21737
7560,36.9219,11737.9,1.22801
7623,37.2295,11840.5,1.23927
7686,37.5371,11943.8,1.25084
7749,37.8447,12038.8,1.25983
7812,38.1523,12148.2,1.27039
7875,38.46,12220.7,1.27981
7938,38.7676,12334.6,1.29053
8001,39.0752,12441.8,1.30066
8064,39.3828,12536.9,1.31192
8127,39.69043,12609.6,1.32229
8190,39.998,12714.9,1.33036
8253,40.3057,12820.1,1.33888
8316,40.6133,12922.5,1.35106
8379,40.9209,13008,1.36188
8442,41.2285,13130.3,1.37405
8505,41.5361,13219.7,1.3823
8568,41.84375,13326.6,1.39173
8631,42.1514,13425,1.40277
8694,42.459,13529,1.41402
8757,42.7666,13634.9,1.42499
8820,43.0742,13722.7,1.43475
8883,43.3818,13820.7,1.44316
8946,43.6895,13900.4,1.45449
9009,43.99707,14010.7,1.46309
9072,44.3047,14118.4,1.4747
9135,44.6123,14211.7,1.48495
9198,44.9199,14298.4,1.49413
9261,45.2275,14383.4,1.50403
9324,45.5352,14491.8,1.51297
9387,45.8428,14606.5,1.52656
9450,46.1504,14700.6,1.537
9513,46.458,14818.1,1.54697
9576,46.7656,14902,1.55885
9639,47.0732,15009,1.56774
9702,47.3809,15102,1.576957
9765,47.6885,15198.8,1.58752
9828,47.9961,15299.1,1.59837
9891,48.3037,15394.7,1.60791
9954,48.6113,15499.4,1.61938
10017,48.9189,15581.7,1.62889
10080,49.2266,15690.4,1.63927
10143,49.53418,15793.3,1.64997
10206,49.8418,15900.1,1.65987
10269,50.1494,16003.6,1.67183
10332,50.457,16096.3,1.67975
10395,50.7646,16169.4,1.69058
10458,51.0723,16280,1.700318
10521,51.3799,16374.8,1.7122
10584,51.6875,16466.8,1.72111
10647,51.9951,16576.9,1.73056
10710,52.3027,16652,1.74162
10773,52.6104,16748.3,1.75179
10836,52.918,16870,1.7617
10899,53.2256,16975.3,1.7746
10962,53.5332,17082.3,1.78428
11025,53.8408,17171.9,1.79542
11088,54.1484,17261.9,1.80383
11151,54.4561,17358.3,1.81445
11214,54.7637,17464.7,1.82328
11277,55.0713,17561.1,1.8349
11340,55.3789,17666.1,1.84657
11403,55.6865,17751.6,1.85638
11466,55.9941,17806.5,1.863619
11529,56.3018,17914.8,1.87375
11592,56.6094,18026.2,1.88399
11655,56.917,18140.5,1.89691
11718,57.2246,18244.9,1.90646
11781,57.5322,18340,1.91507
11844,57.8398,18435.4,1.928
11907,58.1475,18522.8,1.93717
11970,58.4551,18637,1.94757
12033,58.7627,18737.1,1.9565
12096,59.0703,18830.8,1.96807
12159,59.3779,18918.6,1.97862
12222,59.6855,18992.8,1.98798
12285,59.9932,19088.6,1.99709
12348,60.3008,19208.7,2.00843
12411,60.6084,19304.1,2.01912
12474,60.916,19408.7,2.03058
12537,61.2236,19499.1,2.03816
12600,61.53125,19594,2.0491
12663,61.8389,19682.7,2.0576
12726,62.1465,19793.9,2.06947
12789,62.4541,19888.1,2.08081
12852,62.7617,20000.2,2.0902
12915,63.0693,20082.4,2.10169
12978,63.377,20175,2.11055
13041,63.6846,20274.5,2.11993
13104,63.9922,20362.9,2.13107
13167,64.2998,20438.8,2.14153
13230,64.6074,20559.1,2.15145
13293,64.915,20646,2.16166
13356,65.2227,20720.3,2.17193
13419,65.5303,20847.8,2.18135
13482,65.8379,20955.9,2.19313
13545,66.1455,21052.1,2.20358
13608,66.4531,21150.1,2.2147
13671,66.7607,21239.3,2.22445
13734,67.0684,21330.1,2.232935
13797,67.376,21432.9,2.24346
13860,67.6836,21527.3,2.25551
13923,67.9912,21624.2,2.26421
13986,68.2988,21712,2.27372
14049,68.6064,21783.1,2.28536
14112,68.9141,21906.5,2.29519
14175,69.22168,22012.1,2.30704
14238,69.5293,22105.2,2.31657
14301,69.8369,22212.3,2.32737
14364,70.1445,22302.6,2.338074
14427,70.4521,22389.3,2.34525
14490,70.7598,22489.9,2.3563
14553,71.0674,22589.6,2.36789
14616,71.375,22684.9,2.37767
14679,71.6826,22779.8,2.38894
14742,71.9902,22869.9,2.39762
14805,72.2979,22940.8,2.40642
14868,72.6055,23063.7,2.417598
14931,72.9131,23151.4,2.42959
14994,73.2207,23278.6,2.4423
15057,73.52832,23364.5,2.45044
15120,73.8359,23458.1,2.46093
15183,74.1436,23541,2.46944
15246,74.4512,23649.6,2.48116
15309,74.7588,23742.1,2.49023
15372,75.0664,23832.3,2.50301
15435,75.374,23935.2,2.5123
15498,75.6816,24015.2,2.52154
15561,75.9893,24108.9,2.53111
15624,76.2969,24194.8,2.54036
15687,76.6045,24292.4,2.55145
15750,76.9121,24399.2,2.561722
15813,77.2197,24490.5,2.57168
15876,77.5273,24591.5,2.58338
15939,77.835,24675,2.59269
16002,78.1426,24782.3,2.604404
16065,78.4502,24873,2.61215
16128,78.7578,24974.5,2.62505
16191,79.06543,25063.4,2.63575
16254,79.373,25158.8,2.64478
16317,79.6807,25243.5,2.65371
16380,79.9883,25359,2.66476
16443,80.2959,25451.7,2.673367
16506,80.6035,25537.7,2.68538
16569,80.9111,25636.4,2.69599
16632,81.21875,25732.4,2.7052
16695,81.5264,25816.9,2.71563
16758,81.834,25916.9,2.72705
16821,82.1416,26016.4,2.736939
16884,82.4492,26118.8,2.74639
16947,82.7568,26190.7,2.75791
17010,83.0645,26296.1,2.76727
17073,83.37207,26382.7,2.77602
17136,83.6797,26471,2.78752
17199,83.9873,26565.2,2.797497
17262,84.2949,26657.7,2.80891
17325,84.6025,26743.7,2.81704
17388,84.9102,26820.2,2.82779
17451,85.2178,26934.9,2.83851
17514,85.5254,27035.3,2.8488
17577,85.833,27140,2.85987
17640,86.1406,27222.9,2.87017
17703,86.4482,27309.8,2.88114
17766,86.7559,27402.8,2.88883
17829,87.0635,27498.3,2.900569
17892,87.3711,27595.8,2.90969
17955,87.6787,27688.5,2.92058
18018,87.9863,27766.4,2.9306
18081,88.2939,27853.1,2.940887
18144,88.6016,27944.4,2.95188
18207,88.90918,28049.2,2.96144
18270,89.2168,28151.2,2.97285
18333,89.5244,28243.2,2.98293
18396,89.832,28330,2.9937
18459,90.1396,28413.9,3.00322
18522,90.4473,28509.3,3.01108
18585,90.7549,28611.1,3.02329
18648,91.0625,28695.8,3.03541
18692,91.2773,-4242.12,3.41853