Folder: DACS/ASM109_2021_data/MTS/UD (part 6)

File: MTS_UD_13.csv
,Time [s],Load [N],Displacement [mm]
0,0.0078125,-234.893,0.00120459
68,0.339844,-177.436,0.0112399
136,0.671875,-66.5328,0.0223695
204,1.00391,45.0729,0.0335338
272,1.33594,135.422,0.0438906
340,1.66797,269.284,0.0548518
408,2.0,387.816,0.0655607
476,2.33203,486.127,0.0770933
544,2.66406,613.839,0.0874352
612,2.99609,733.837,0.0987503
680,3.328125,833.583,0.110829
748,3.66016,949.042,0.121749
816,3.99219,1069.37,0.132491
884,4.32422,1180.21,0.143037
952,4.65625,1302.8,0.153047
1020,4.98828,1421.61,0.165105
1088,5.32031,1521.73,0.176429
1156,5.65234,1639.38,0.187062
1224,5.984375,1753.02,0.198119
1292,6.31641,1871.15,0.208985
1360,6.64844,1978.36,0.221283
1428,6.98047,2098.74,0.233278
1496,7.3125,2199.89,0.242506
1564,7.64453,2317.64,0.253833
1632,7.97656,2439.56,0.266113
1700,8.30859,2545.71,0.2768532
1768,8.640625,2655.08,0.287191
1836,8.97266,2772,0.297037
1904,9.30469,2899.96,0.309025
1972,9.63672,2997.83,0.31963
2040,9.96875,3111.11,0.331225
2108,10.3008,3221.46,0.341866
2176,10.6328,3331.12,0.3538197
2244,10.9648,3453.87,0.362561
2312,11.2969,3565.09,0.3751758
2380,11.6289,3680.09,0.387259
2448,11.9609,3778.75,0.396151
2516,12.293,3898.83,0.408647
2584,12.625,4003.74,0.420475
2652,12.957,4118.79,0.42947
2720,13.2891,4223.84,0.442007
2788,13.6211,4352.17,0.452845
2856,13.9531,4468.3,0.463567
2924,14.2852,4581.97,0.474018
2992,14.6172,4697.02,0.486411
3060,14.9492,4798.54,0.494986
3128,15.28125,4908.59,0.5086484
3196,15.6133,5022.43,0.5199331
3264,15.9453,5135.62,0.528691
3332,16.2773,5251.07,0.541372
3400,16.6094,5353.02,0.552142
3468,16.9414,5458.48,0.563957
3536,17.2734,5578.68,0.57484
3604,17.6055,5689.74,0.586131
3672,17.9375,5801.15,0.596495
3740,18.2695,5910.45,0.607775
3808,18.6016,6028.7,0.620318
3876,18.9336,6136.9,0.631438
3944,19.2656,6247.09,0.6407935
4012,19.5977,6363.74,0.652843
4080,19.9297,6464.39,0.662296
4148,20.2617,6582.68,0.675002
4216,20.59375,6682.33,0.685302
4284,20.9258,6801.77,0.695803
4352,21.2578,6895.52,0.707185
4420,21.5898,7009.94,0.719015
4488,21.9219,7118.74,0.728899
4556,22.2539,7237.05,0.7389456
4624,22.5859,7345.47,0.750898
4692,22.918,7459,0.762543
4760,23.25,7558.5,0.772206
4828,23.582,7681.7,0.785132
4896,23.9141,7781.01,0.795349
4964,24.2461,7902.34,0.806043
5032,24.5781,8009.45,0.817487
5100,24.9102,8114.3,0.828305
5168,25.2422,8214.29,0.839402
5236,25.5742,8353.04,0.85071
5304,25.90625,8449.82,0.86209
5372,26.2383,8551.01,0.872887
5440,26.5703,8656.99,0.882953
5508,26.9023,8785.55,0.895046
5576,27.2344,8867.38,0.905948
5644,27.5664,8989.56,0.918106
5712,27.8984,9106.93,0.928445
5780,28.2305,9205.38,0.939583
5848,28.5625,9325.93,0.95142
5916,28.8945,9424.66,0.961105
5984,29.2266,9544.7,0.972857
6052,29.5586,9623.44,0.983404
6120,29.8906,9763.91,0.996362
6188,30.2227,9859.99,1.00574
6256,30.5547,9945.42,1.01754
6324,30.8867,10091.4,1.0276
6392,31.21875,10190.2,1.04009
6460,31.5508,10311.4,1.049345
6528,31.8828,10425.9,1.06083
6596,32.2148,10537.7,1.07202
6664,32.5469,10632.7,1.082734
6732,32.8789,10750.8,1.09502
6800,33.2109,10856.9,1.10542
6868,33.543,10969.5,1.11574
6936,33.875,11089.3,1.129576
7004,34.207,11184.7,1.13819
7072,34.5391,11293.2,1.149737
7140,34.8711,11419.3,1.16158
7208,35.2031,11503.9,1.17198
7276,35.5352,11624.1,1.183122
7344,35.8672,11730.7,1.19346
7412,36.1992,11843.7,1.20709
7480,36.53125,11934.4,1.21578
7548,36.8633,12060.3,1.225651
7616,37.1953,12165,1.23913
7684,37.5273,12274.4,1.249272
7752,37.8594,12378.8,1.25991
7820,38.1914,12489.7,1.27027
7888,38.5234,12603.6,1.28345
7956,38.8555,12701.4,1.29338
8024,39.1875,12822,1.30484
8092,39.5195,12929.6,1.31649
8160,39.8516,13024.9,1.32583
8228,40.1836,13140.8,1.33969
8296,40.5156,13251.2,1.34963
8364,40.8477,13363.3,1.35995
8432,41.1797,13473.2,1.372223
8500,41.5117,13574.9,1.38264
8568,41.84375,13682.9,1.394412
8636,42.1758,13801.8,1.40527
8704,42.5078,13905.2,1.41636
8772,42.8398,14008.8,1.42671
8840,43.1719,14120,1.43745
8908,43.5039,14231.9,1.44907
8976,43.8359,14321.6,1.4588
9044,44.168,14447.1,1.47148
9112,44.5,14551.9,1.48225
9180,44.832,14647.9,1.4929
9248,45.1641,14768.4,1.50441
9316,45.4961,14883.9,1.51464
9384,45.8281,14986,1.52762
9452,46.1602,15104.3,1.53773
9520,46.4922,15209.3,1.54878
9588,46.8242,15291.8,1.56064
9656,47.15625,15419.5,1.56981
9724,47.4883,15529.7,1.58337
9792,47.8203,15637.9,1.59411
9860,48.1523,15741.1,1.60186
9928,48.4844,15848.4,1.61431
9996,48.8164,15948.6,1.6251
10064,49.1484,16057.8,1.63609
10132,49.4805,16176.3,1.6474
10200,49.8125,16280,1.65894
10268,50.1445,16376.6,1.66957
10336,50.4766,16499.5,1.68137
10404,50.8086,16610.6,1.69217
10472,51.1406,16688,1.70275
10540,51.4727,16819.8,1.714005
10608,51.8047,16923.6,1.725688
10676,52.1367,17022.2,1.73618
10744,52.46875,17146.9,1.74558
10812,52.8008,17251.6,1.75904
10880,53.1328,17349.2,1.76869
10948,53.4648,17460.7,1.78067
11016,53.7969,17561.8,1.79171
11084,54.1289,17680.1,1.80197
11152,54.4609,17785.1,1.81462
11220,54.793,17894.4,1.82518
11288,55.125,18003.5,1.83727
11356,55.457,18109,1.84835
11424,55.7891,18217.9,1.85827
11492,56.1211,18330.5,1.870266
11560,56.4531,18417.5,1.880687
11628,56.7852,18555,1.89272
11696,57.1172,18655.1,1.90317
11764,57.4492,18739.7,1.91196
11832,57.78125,18876,1.92556
11900,58.1133,18973.8,1.93624
11968,58.4453,19076.7,1.94786
12036,58.7773,19193.9,1.9585
12104,59.1094,19302.1,1.96962
12172,59.4414,19391.6,1.97933
12240,59.7734,19518.7,1.99074
12308,60.1055,19621,2.00158
12376,60.4375,19710.7,2.01287
12444,60.7695,19830.4,2.02406
12512,61.1016,19939.1,2.03529
12580,61.4336,20037.8,2.04538
12648,61.7656,20157.4,2.05733
12716,62.0977,20251.2,2.06865
12784,62.4297,20361.7,2.07949
12852,62.7617,20465.5,2.09155
12920,63.09375,20571,2.10109
12988,63.4258,20668.2,2.112515
13056,63.7578,20776.5,2.1234
13124,64.0898,20889.7,2.13557
13192,64.4219,20987.4,2.144994
13260,64.7539,21070.4,2.15721
13328,65.0859,21197.6,2.16923
13396,65.418,21303.7,2.18023
13464,65.75,21402.6,2.18889
13532,66.082,21522.9,2.20244
13600,66.4141,21633.7,2.21212
13668,66.7461,21712.4,2.22261
13736,67.0781,21844.6,2.23431
13804,67.4102,21931.9,2.24549
13872,67.7422,22046.1,2.25614
13940,68.0742,22150.2,2.26638
14008,68.40625,22239.7,2.27956
14076,68.7383,22358.8,2.28886
14144,69.0703,22469.4,2.30094
14212,69.4023,22566.9,2.31156
14280,69.7344,22656.4,2.322746
14348,70.0664,22771.6,2.33408
14416,70.3984,22883.1,2.3463
14484,70.7305,22978.9,2.3562
14552,71.0625,23078.3,2.36599
14620,71.3945,23184.2,2.37725
14688,71.7266,23290.9,2.39
14756,72.0586,23385.2,2.40008
14824,72.3906,23505.4,2.41189
14892,72.7227,23596.3,2.4233
14960,73.0547,23707.1,2.43327
15028,73.3867,23821.3,2.44396
15096,73.71875,23909.2,2.45461
15164,74.0508,24008.5,2.465687
15232,74.3828,24133.1,2.47709
15300,74.7148,24231.8,2.48949
15368,75.0469,24333.6,2.49929
15436,75.3789,24446.6,2.51052
15504,75.7109,24541.6,2.52213
15572,76.043,24655.3,2.53296
15640,76.375,24761.7,2.54551
15708,76.707,24849.4,2.55503
15776,77.0391,24949,2.56413
15844,77.3711,25078.6,2.57849
15912,77.7031,25186.2,2.59025
15980,78.0352,25280.6,2.6008
16048,78.3672,25371,2.60998
16116,78.6992,25491.1,2.62334
16184,79.03125,25594.8,2.63284
16252,79.3633,25678.9,2.64388
16320,79.6953,25795.6,2.65569
16388,80.0273,25890.4,2.66629
16456,80.3594,26003.4,2.67604
16524,80.6914,26104.1,2.68916
16592,81.0234,26198.3,2.70007
16660,81.3555,26298.2,2.71018
16728,81.6875,26401,2.72191
16796,82.0195,26507.9,2.73295
16864,82.3516,26609.1,2.74348
16932,82.6836,26718.4,2.75349
17000,83.0156,26807.3,2.76586
17068,83.3477,26909.9,2.77534
17136,83.6797,27018.6,2.78732
17204,84.0117,27128.1,2.79972
17272,84.34375,27225.3,2.808
17340,84.6758,27336.7,2.82073
17408,85.0078,27446.7,2.83285
17476,85.3398,27537.4,2.84306
17544,85.6719,27646.2,2.85424
17612,86.0039,27759,2.86457
17680,86.3359,27854.3,2.87563
17748,86.668,27959.3,2.886508
17816,87.0,28058.6,2.89853
17884,87.332,28155.7,2.90787
17952,87.6641,28257.1,2.92097
18020,87.9961,28367.8,2.93169
18088,88.3281,28461.1,2.94274
18156,88.6602,28541.9,2.95383
18224,88.9922,28677,2.96521
18292,89.3242,28769.4,2.977
18360,89.65625,28880.2,2.98761
18428,89.9883,28972.9,2.99684
18496,90.3203,29074.3,3.008883
18564,90.6523,29176.3,3.01873
18632,90.9844,29283.1,3.03014
18700,91.3164,29389.5,3.04331
18768,91.6484,29486.4,3.05371
18836,91.9805,29592.5,3.06454
18904,92.3125,29696.9,3.075243
18972,92.6445,29794.6,3.08575
19040,92.9766,29904.3,3.09705
19108,93.3086,30000.3,3.10953
19176,93.6406,30092.6,3.11947
19244,93.9727,30193,3.1304
19312,94.3047,30292,3.14057
19380,94.6367,30379.6,3.15225
19448,94.96875,30496.1,3.16444
19516,95.3008,30586.2,3.174891
19584,95.6328,30690.5,3.18757
19652,95.9648,30782.2,3.19688
19720,96.2969,30896.7,3.20782
19788,96.6289,30987.1,3.22082
19856,96.9609,31097.3,3.23082
19924,97.293,31196.8,3.2407
19992,97.625,31299,3.25473
20060,97.957,31401.5,3.26396
20128,98.2891,31494.5,3.27599
20196,98.6211,31597.3,3.28591
20229,98.7822,-940.15,3.44533